"Time (s)","Linear Acceleration x (m/s^2)","Linear Acceleration y (m/s^2)","Linear Acceleration z (m/s^2)"
3.794288015E1,-2.598476410E-2,-6.826859713E-2,4.532980919E-2
3.794538600E1,-1.917743683E-2,-6.476408243E-2,5.401301384E-2
3.794789163E1,-2.141571045E-2,-5.827808380E-2,5.097603798E-2
3.795039747E1,-4.865169525E-2,-4.122775793E-2,6.429815292E-2
3.795290324E1,-6.266307831E-2,-1.202398539E-2,6.412672997E-2
3.795540886E1,-6.573009491E-2,-1.191896200E-2,5.884933472E-2
3.795791470E1,-7.682800293E-2,-4.670530558E-2,3.071331978E-2
3.796042046E1,-7.467746735E-2,-3.146153688E-2,2.073168755E-2
3.796292608E1,-7.661724091E-2,-3.329455853E-2,-2.411532402E-2
3.796543192E1,-5.030345917E-2,-5.382812023E-2,-3.375482559E-2
3.796793770E1,-5.708694458E-2,-2.864909172E-2,-4.731059074E-2
3.797044354E1,-8.382987976E-2,-4.560589790E-3,-5.467772484E-2
3.797294915E1,-7.354450226E-2,1.506990194E-2,-5.427694321E-2
3.797545492E1,-6.127548218E-2,1.201909781E-2,-5.768370628E-2
3.797796077E1,-8.707427979E-2,2.289164066E-2,-7.213783264E-2
3.798046638E1,-6.075382233E-2,4.360842705E-2,-5.656266212E-2
3.798297223E1,-6.757545471E-2,4.421937466E-2,-6.319832802E-2
3.798547800E1,-4.325675964E-2,6.066918373E-2,-8.425617218E-2
3.798798361E1,2.598571777E-2,9.485375881E-2,-1.197149754E-1
3.799048947E1,1.928138733E-2,9.123873711E-2,-1.598823071E-1
3.799299524E1,1.454162598E-2,6.585150957E-2,-1.304001808E-1
3.799550109E1,5.672454834E-3,5.128461123E-2,-4.600954056E-2
3.799800670E1,-1.127719879E-2,6.076580286E-2,-5.314397812E-2
3.800051243E1,-2.819633484E-2,4.836130142E-2,-4.860234261E-2
3.800301828E1,-9.180068970E-3,4.699933529E-2,-3.678703308E-2
3.800552389E1,1.491928101E-2,1.581168175E-2,-4.057812691E-2
3.800802966E1,2.191543579E-2,3.071409464E-2,-4.385828972E-2
3.801053554E1,4.901981354E-2,3.241729736E-2,-6.757187843E-2
3.801304116E1,6.097793579E-2,5.303627253E-2,-9.585285187E-2
3.801554701E1,8.702278137E-2,4.281497002E-2,-8.355951309E-2
3.801805278E1,1.008281708E-1,4.146963358E-2,-8.900117874E-2
3.802055839E1,1.278953552E-1,5.014979839E-2,-1.007788181E-1
3.802306423E1,1.077318192E-1,6.080007553E-2,-1.063449383E-1
3.802557000E1,1.438331604E-1,5.745381117E-2,-1.280915737E-1
3.802807585E1,1.585092545E-1,4.409754276E-2,-1.519286633E-1
3.803058147E1,1.536321640E-1,4.172623158E-2,-1.167426109E-1
3.803308724E1,1.629981995E-1,5.632531643E-2,-1.251425743E-1
3.803559308E1,1.360797882E-1,5.788958073E-2,-1.058328152E-1
3.803809870E1,1.353111267E-1,3.928917646E-2,-8.566880226E-2
3.804060447E1,1.263780594E-1,3.409898281E-2,-9.551310539E-2
3.804311031E1,1.206407547E-1,7.045722008E-2,-9.442782402E-2
3.804561592E1,1.105852127E-1,6.297910213E-2,-6.135606766E-2
3.804812176E1,9.570026398E-2,6.126582623E-2,-6.359624863E-2
3.805062753E1,7.169055939E-2,6.974935532E-2,-4.446530342E-2
3.805313315E1,6.879615784E-2,7.294958830E-2,-3.472733498E-2
3.805563903E1,7.266998291E-2,6.750029325E-2,-3.873705864E-2
3.805814480E1,5.070495605E-2,8.944910765E-2,-1.506471634E-2
3.806065064E1,4.076576233E-2,8.380836248E-2,-2.492189407E-2
3.806315626E1,4.976177216E-2,1.096757054E-1,-3.902959824E-2
3.806566202E1,4.286575317E-2,9.899353981E-2,-4.291749001E-2
3.806816786E1,2.489662170E-2,1.158310175E-1,-3.293490410E-2
3.807067348E1,4.589271545E-2,1.338433623E-1,-4.968833923E-2
3.807317925E1,2.923679352E-2,1.057993174E-1,-6.647086143E-2
3.807568509E1,1.919078827E-2,1.187055111E-1,-3.730463982E-2
3.807819071E1,1.346302032E-2,1.205505133E-1,-5.812621117E-2
3.808069655E1,8.379936218E-3,1.124266386E-1,-3.387784958E-2
3.808320232E1,-8.264541626E-3,1.310294271E-1,-3.748846054E-2
3.808570794E1,-1.325225830E-2,1.327046156E-1,-5.197405815E-2
3.808821378E1,-1.883792877E-2,1.174221635E-1,-4.846215248E-2
3.809071956E1,-1.871490479E-2,1.242019534E-1,-5.289053917E-2
3.809322517E1,-1.220226288E-2,1.039963961E-1,-6.116175652E-2
3.809573103E1,-2.807426453E-2,1.010106206E-1,-6.056666374E-2
3.809823680E1,-2.855396271E-2,9.416300058E-2,-6.664776802E-2
3.810074265E1,-3.338050842E-2,9.534609318E-2,-4.416561127E-2
3.810324826E1,-2.703666687E-2,1.073025465E-1,-4.051351547E-2
3.810575410E1,-2.478694916E-2,1.163147092E-1,-5.691409111E-2
3.810825964E1,-4.931449890E-2,1.211652160E-1,-4.118561745E-2
3.811076548E1,-5.324077606E-2,9.841537476E-2,-4.075932503E-2
3.811327125E1,-6.164550781E-2,8.866840601E-2,-3.991079330E-2
3.811577707E1,-4.160213470E-2,8.801883459E-2,-3.251290321E-2
3.811828269E1,-5.403423309E-2,6.725335121E-2,-3.357553482E-2
3.812078853E1,-5.399894714E-2,6.875413656E-2,-4.455327988E-3
3.812329430E1,-6.452751160E-2,6.910765171E-2,1.144766808E-2
3.812579992E1,-5.738735199E-2,5.480241776E-2,-1.932024956E-2
3.812830575E1,-5.069828033E-2,6.027030945E-2,-8.272886276E-3
3.813081152E1,-4.080677032E-2,3.796660900E-2,1.275324821E-2
3.813331736E1,-3.617000580E-2,2.178251743E-2,2.846646309E-2
3.813582298E1,-3.121852875E-2,1.761734486E-2,9.590148926E-3
3.813832875E1,-2.260780334E-2,3.741234541E-2,2.247214317E-2
3.814083436E1,-2.267074585E-2,1.525592804E-2,2.729272842E-2
3.814334020E1,-1.592636108E-2,1.122552156E-2,1.139259338E-2
3.814584597E1,2.895355225E-3,2.300095558E-2,1.425266266E-2
3.814835182E1,-1.840782166E-2,1.692295074E-2,6.446838379E-3
3.815085745E1,-4.251480103E-3,1.482498646E-2,-1.544141769E-2
3.815336322E1,1.040649414E-2,1.269400120E-2,7.578849792E-3
3.815586906E1,7.423400879E-3,5.585730076E-3,-9.317874908E-3
3.815837468E1,1.210975647E-2,-5.805492401E-5,-1.723885536E-2
3.816088051E1,4.812717438E-2,-1.900017262E-2,-2.217864990E-2
3.816338628E1,7.170963287E-2,-4.354196787E-2,-2.553963661E-2
3.816589190E1,7.361412048E-2,-5.819427967E-2,-1.717805862E-3
3.816839774E1,7.812690735E-2,-7.265383005E-2,8.582592010E-3
3.817090352E1,8.308219910E-2,-4.138535261E-2,-2.939867973E-2
3.817340937E1,5.656623840E-2,-3.118807077E-2,-5.093860626E-2
3.817591498E1,3.961658478E-2,4.762947559E-3,-7.456851006E-2
3.817842075E1,3.218269348E-2,1.565867662E-2,-1.090314388E-1
3.818092658E1,3.624629974E-2,3.639024496E-2,-8.458900452E-2
3.818343220E1,3.549480438E-2,5.594426394E-2,-7.956624031E-2
3.818593797E1,2.175712585E-2,3.959876299E-2,-9.295773506E-2
3.818844381E1,1.969337463E-3,6.107968092E-2,-9.480237961E-2
3.819094943E1,-2.165889740E-2,6.057304144E-2,-1.128690243E-1
3.819345528E1,-2.727127075E-2,5.394893885E-2,-8.838844299E-2
3.819596105E1,-4.085350037E-2,5.542582273E-2,-9.447264671E-2
3.819846666E1,-4.451084137E-2,5.196028948E-2,-1.011116505E-1
3.820097251E1,-6.807899475E-2,2.987897396E-2,-1.120402813E-1
3.820347828E1,-7.577991486E-2,2.867633104E-2,-9.981513023E-2
3.820598412E1,-7.239532471E-2,3.059804440E-2,-1.008186340E-1
3.820848974E1,-7.621097565E-2,2.947336435E-2,-6.200098991E-2
3.821099552E1,-6.387233734E-2,7.567226887E-3,-8.323931694E-2
3.821350137E1,-8.148670197E-2,3.667950630E-3,-9.706473351E-2
3.821600698E1,-7.122039795E-2,3.643989563E-3,-9.108638763E-2
3.821851283E1,-7.686138153E-2,1.479876041E-2,-8.094215393E-2
3.822101860E1,-7.165145874E-2,2.832293510E-3,-5.934429169E-2
3.822352420E1,-6.528377533E-2,1.103490591E-2,-6.824207306E-2
3.822603004E1,-6.199359894E-2,-2.990186214E-3,-6.756782532E-2
3.822853581E1,-3.867816925E-2,1.230007410E-2,-5.938959122E-2
3.823104143E1,-1.602172852E-3,1.613199711E-3,-1.671934128E-2
3.823354728E1,1.557540894E-2,-5.572438240E-4,-3.062772751E-2
3.823605305E1,1.950454712E-2,2.531886101E-2,-2.346324921E-2
3.823855890E1,4.255390167E-2,1.733064651E-2,-2.593064308E-2
3.824106451E1,5.257320404E-2,2.804511786E-2,-1.890611649E-2
3.824357028E1,8.266162872E-2,3.205960989E-2,-3.745770454E-2
3.824607612E1,1.045436859E-1,3.673940897E-2,-4.748916626E-2
3.824858174E1,9.366226196E-2,3.763091564E-2,-5.690622330E-2
3.825108758E1,7.354736328E-2,6.439697742E-2,-5.762815475E-2
3.825359334E1,7.355499268E-2,4.003167152E-2,-4.554128647E-2
3.825609896E1,6.050300598E-2,4.100006819E-2,-3.819727898E-2
3.825860480E1,5.044364929E-2,4.260742664E-2,-2.915024757E-2
3.826111057E1,2.442932129E-2,4.519015551E-2,-2.221345901E-3
3.826361619E1,-2.630233765E-3,4.778510332E-2,1.089930534E-2
3.826612202E1,-2.679157257E-2,5.743849277E-2,5.664896965E-2
3.826862779E1,-3.300666809E-2,4.626262188E-2,8.276081085E-2
3.827113364E1,-4.016304016E-2,6.283110380E-2,1.083290577E-1
3.827363925E1,-8.221244812E-2,5.550038815E-2,1.299262047E-1
3.827614503E1,-6.040954590E-2,5.326211452E-2,1.242930889E-1
3.827865065E1,-7.114887238E-2,6.798392534E-2,1.055335999E-1
3.828115649E1,-9.561252594E-2,6.699371338E-2,9.523320198E-2
3.828366226E1,-8.162879944E-2,7.155966759E-2,7.102394104E-2
3.828616809E1,-9.582233429E-2,7.612347603E-2,6.593632698E-2
3.828867371E1,-8.904170990E-2,6.910490990E-2,5.504989624E-2
3.829117955E1,-6.516456604E-2,6.827729940E-2,4.057478905E-2
3.829368533E1,-6.224918365E-2,1.085014939E-1,3.346705437E-2
3.829619092E1,-7.732963562E-2,1.694530249E-1,2.643251419E-2
3.829869669E1,-4.846668243E-2,1.511617303E-1,2.608799934E-2
3.830120254E1,1.129913330E-2,1.447153687E-1,2.581000328E-2
3.830370838E1,3.005313873E-2,1.094061136E-1,5.106115341E-2
3.830621399E1,4.156398773E-2,6.067043543E-2,8.093857765E-2
3.830871976E1,4.820156097E-2,-9.267628193E-3,7.456636429E-2
3.831122537E1,5.090808868E-2,-2.306371927E-2,6.978774071E-2
3.831373122E1,5.952262878E-2,-2.114576101E-2,4.656434059E-2
3.831623698E1,7.345962524E-2,-1.911103725E-2,-2.248477936E-2
3.831874283E1,6.635284424E-2,4.546821117E-3,-5.895400047E-2
3.832124844E1,8.323287964E-2,4.026532173E-3,-4.777836800E-2
3.832375421E1,8.816814423E-2,3.951907158E-3,-3.384757042E-2
3.832626006E1,1.071796417E-1,7.747828960E-3,-3.196907043E-2
3.832876568E1,1.137037277E-1,2.110993862E-2,-4.515433311E-2
3.833127145E1,1.206912994E-1,3.285264969E-2,-3.324961662E-2
3.833377729E1,1.062641144E-1,4.396951199E-2,-2.951955795E-2
3.833628292E1,8.221912384E-2,9.325963259E-2,-4.148459435E-2
3.833878876E1,2.870750427E-2,1.482698321E-1,-5.851602554E-2
3.834129453E1,5.779743195E-2,1.074191928E-1,-4.742574692E-2
3.834380015E1,8.812141418E-2,9.604638815E-2,-1.684379578E-2
3.834630602E1,7.088184357E-2,7.544422150E-2,4.649591446E-2
3.834881179E1,8.013343811E-2,5.720227957E-2,3.240013123E-2
3.835131741E1,8.496475220E-2,3.590196371E-2,-8.199214935E-4
3.835382325E1,7.723045349E-2,2.476596832E-2,-4.854893684E-2
3.835632902E1,6.746196747E-2,5.736964941E-2,-9.615731239E-2
3.835883487E1,4.589366913E-2,5.792361498E-2,-8.968615532E-2
3.836134048E1,5.286598206E-2,6.255716085E-2,-6.541323662E-2
3.836384625E1,2.336215973E-2,7.468658686E-2,-8.672976494E-2
3.836635207E1,-4.987716675E-4,9.570413828E-2,-6.220817566E-2
3.836885769E1,1.291275024E-2,1.043745875E-1,-6.344652176E-2
3.837136353E1,1.601123810E-2,1.104946733E-1,-6.510591507E-2
3.837386930E1,2.055644989E-2,1.266581416E-1,-7.828187943E-2
3.837637490E1,2.699279785E-2,1.399570704E-1,-1.032319069E-1
3.837888075E1,-1.718521118E-3,1.466785669E-1,-1.073627472E-1
3.838138652E1,-6.418228149E-3,1.573470235E-1,-1.114318371E-1
3.838389236E1,2.023696899E-2,1.277147532E-1,-1.211276054E-1
3.838639799E1,2.050495148E-2,1.287416220E-1,-1.373915672E-1
3.838890376E1,1.713466644E-2,1.229521632E-1,-1.450002193E-1
3.839140961E1,-1.541137695E-3,1.131123304E-1,-1.559262276E-1
3.839391522E1,5.195617676E-3,1.121991277E-1,-1.515479088E-1
3.839642101E1,1.539421082E-2,1.114062667E-1,-1.416637897E-1
3.839892685E1,1.011943817E-2,9.152084589E-2,-1.493241787E-1
3.840143247E1,2.437400818E-2,8.791524172E-2,-1.463727951E-1
3.840393831E1,1.709175110E-2,8.303385973E-2,-1.351232529E-1
3.840644409E1,2.030944824E-2,7.452243567E-2,-1.025316715E-1
3.840894970E1,2.371120453E-2,4.562121630E-2,-8.255028725E-2
3.841145554E1,2.002143860E-2,5.718195438E-2,-9.396386147E-2
3.841396132E1,1.650047302E-2,5.609887838E-2,-5.704665184E-2
3.841646718E1,2.859115601E-2,3.579527140E-2,-5.675792694E-2
3.841897280E1,3.291320801E-2,2.586191893E-2,-3.408360481E-2
3.842147856E1,3.788948059E-2,1.373302937E-2,-2.888846397E-2
3.842398441E1,4.430103302E-2,1.285707951E-2,-3.235912323E-2
3.842649003E1,5.821514130E-2,1.272720098E-2,-1.531934738E-2
3.842899576E1,6.046867371E-2,-2.100050449E-3,-1.045942307E-3
3.843150161E1,5.352973938E-2,-1.015901566E-2,-8.039712906E-3
3.843400723E1,5.959701538E-2,-1.108855009E-2,1.608514786E-2
3.843651307E1,5.643463135E-2,-1.104718447E-2,3.262472153E-2
3.843901884E1,3.960132599E-2,-8.836567402E-3,3.562593460E-2
3.844152446E1,5.444049835E-2,-1.653164625E-2,5.016851425E-2
3.844403030E1,4.738235474E-2,-2.446812391E-2,3.475522995E-2
3.844653607E1,2.109432220E-2,-3.106415272E-2,4.429459572E-2
3.844904192E1,5.075454712E-3,-4.356890917E-2,6.082439423E-2
3.845154758E1,2.992630005E-3,-4.526811838E-2,4.841876030E-2
3.845405334E1,-2.390956879E-2,-4.886180162E-2,6.123065948E-2
3.845655919E1,-2.209854126E-2,-4.551857710E-2,6.982159615E-2
3.845906481E1,-3.302383423E-2,-7.491040230E-2,7.288336754E-2
3.846157059E1,-4.212188721E-2,-8.137989044E-2,7.448005676E-2
3.846407644E1,-3.786277771E-2,-8.653301001E-2,5.853009224E-2
3.846658206E1,-5.995941162E-2,-7.893162966E-2,6.325411797E-2
3.846908790E1,-6.768989563E-2,-9.331071377E-2,4.665541649E-2
3.847159368E1,-5.632877350E-2,-6.760984659E-2,1.713204384E-2
3.847409930E1,-1.523303986E-2,-6.408989429E-2,2.106666565E-2
3.847660514E1,-1.114463806E-2,-9.217971563E-2,-1.873111725E-2
3.847911092E1,-6.704330444E-3,-6.850820780E-2,-8.269309998E-3
3.848161675E1,-3.146839142E-2,-7.390302420E-2,1.097011566E-2
3.848412236E1,-4.734134674E-2,-6.628340483E-2,-2.171826363E-2
3.848662813E1,-5.921173096E-2,-6.576335430E-2,-5.460262299E-3
3.848913398E1,-8.892536163E-2,-6.630492210E-2,-7.206678391E-3
3.849163959E1,-7.572269440E-2,-5.490809679E-2,-5.909681320E-3
3.849414544E1,-8.750534058E-2,-6.346255541E-2,-3.142309189E-2
3.849665121E1,-7.234001160E-2,-7.995206118E-2,-1.223778725E-2
3.849915682E1,-1.000118256E-1,-7.032054663E-2,-2.069687843E-2
3.850166268E1,-9.683227539E-2,-6.280481815E-2,-1.645398140E-2
3.850416846E1,-8.143043518E-2,-4.748159647E-2,-2.482056618E-2
3.850667407E1,-7.629489899E-2,-5.603337288E-2,-2.444911003E-2
3.850917991E1,-9.081363678E-2,-4.953712225E-2,-2.272820473E-2
3.851168566E1,-1.026086807E-1,-3.723269701E-2,-3.039312363E-2
3.851419150E1,-8.437061310E-2,-2.786529064E-2,-1.476693153E-2
3.851669704E1,-8.621406555E-2,-1.571142673E-2,-2.535581589E-3
3.851920289E1,-7.496166229E-2,-1.251971722E-2,1.978039742E-2
3.852170851E1,-7.790470123E-2,9.513497353E-3,7.925510406E-3
3.852421435E1,-6.857585907E-2,2.963978052E-2,1.624441147E-2
3.852672012E1,-6.171417236E-2,4.929327965E-2,3.030800819E-2
3.852922597E1,-6.240367889E-2,4.835265875E-2,2.176594734E-2
3.853173161E1,-6.090641022E-2,3.743749857E-2,1.749920845E-2
3.853423738E1,-4.593753815E-2,7.085025311E-2,1.347446442E-2
3.853674323E1,-3.008747101E-2,8.223259449E-2,1.047587395E-2
3.853924884E1,-3.748512268E-2,1.137583852E-1,-2.133512497E-2
3.854175468E1,-2.107429504E-2,1.530432105E-1,-2.228474617E-2
3.854426046E1,-1.404666901E-2,1.674409509E-1,-2.713680267E-2
3.854676630E1,-9.630203247E-3,1.872789860E-1,-2.499747276E-2
3.854927192E1,2.256393433E-3,2.310128212E-1,-2.481603622E-2
3.855177770E1,-3.237247467E-2,2.516750097E-1,-1.376819611E-2
3.855428332E1,-2.042293549E-2,2.425201237E-1,-3.536915779E-2
3.855678916E1,1.599311829E-3,1.974390149E-1,-4.011249542E-2
3.855929493E1,6.083488464E-3,1.883066297E-1,-6.873321533E-2
3.856180050E1,6.164550781E-3,1.698384881E-1,-6.628608704E-2
3.856430635E1,-9.284973145E-3,1.676200628E-1,-5.689311028E-2
3.856681212E1,-1.106452942E-2,1.570677161E-1,-7.627916336E-2
3.856931796E1,-9.392738342E-3,1.589716077E-1,-9.051537514E-2
3.857182356E1,-1.817417145E-2,1.552770734E-1,-7.957839966E-2
3.857432932E1,-2.839660645E-2,1.748402119E-1,-7.987785339E-2
3.857683517E1,-5.265426636E-2,1.936408281E-1,-7.108426094E-2
3.857934079E1,-4.265308380E-2,1.970488429E-1,-6.063818932E-2
3.858184655E1,-3.732681274E-2,2.091459036E-1,-9.872364998E-2
3.858435240E1,-5.247974396E-2,2.047494054E-1,-1.005740166E-1
3.858685801E1,-4.535293579E-2,2.049896717E-1,-9.773993492E-2
3.858936386E1,-3.549385071E-2,2.003403306E-1,-9.768867493E-2
3.859186963E1,-3.335380554E-2,1.885280013E-1,-8.879423141E-2
3.859437526E1,-4.746150970E-2,2.059445083E-1,-9.375762939E-2
3.859688110E1,-4.534339905E-2,2.151795030E-1,-8.402013779E-2
3.859938687E1,-4.943847656E-2,2.344079912E-1,-8.396577835E-2
3.860189272E1,-3.337192535E-2,2.302941978E-1,-8.707928658E-2
3.860439833E1,-9.522438049E-3,2.224487662E-1,-1.089475155E-1
3.860690409E1,-9.396553040E-3,2.341257036E-1,-8.226609230E-2
3.860940994E1,2.236461639E-2,2.175859809E-1,-1.015086174E-1
3.861191556E1,-1.157379150E-2,2.320371270E-1,-7.377004623E-2
3.861442130E1,-1.885414124E-3,2.409758270E-1,-9.118199348E-2
3.861692715E1,2.003669739E-3,2.545509934E-1,-6.165695190E-2
3.861943277E1,-5.449295044E-3,2.371990681E-1,-5.548024178E-2
3.862193861E1,9.458541870E-3,2.516623437E-1,-3.424930573E-2
3.862444438E1,-3.203392029E-3,2.266030908E-1,-3.727006912E-2
3.862695000E1,-6.169319153E-3,2.272023261E-1,-5.579090118E-2
3.862945584E1,-1.389312744E-2,2.095294893E-1,-4.796409607E-2
3.863196161E1,-1.905441284E-3,2.262018025E-1,-4.456448555E-2
3.863446746E1,-1.268959045E-2,2.402155399E-1,-5.573010445E-2
3.863697310E1,-2.467823029E-2,2.412574291E-1,-4.545068741E-2
3.863947886E1,-5.133724213E-2,2.340271771E-1,-4.677987099E-2
3.864198471E1,-7.033538818E-2,2.344651818E-1,-4.128265381E-2
3.864449033E1,-6.903171539E-2,2.443644404E-1,-4.286003113E-2
3.864699618E1,-7.806205750E-2,2.429076433E-1,-4.732608795E-3
3.864950195E1,-8.897972107E-2,2.153561711E-1,7.384777069E-3
3.865200756E1,-8.197307587E-2,2.309464812E-1,5.567312241E-3
3.865451341E1,-7.293796539E-2,2.004313767E-1,-1.228570938E-3
3.865701918E1,-7.559013367E-2,1.602206826E-1,-2.673554420E-2
3.865952479E1,-7.848930359E-2,1.572698653E-1,-4.041337967E-2
3.866203064E1,-1.079959869E-1,1.509245336E-1,-3.451228142E-2
3.866453641E1,-1.239385605E-1,1.481836438E-1,-2.916049957E-2
3.866704202E1,-1.198072433E-1,1.354677677E-1,-1.682806015E-2
3.866954786E1,-1.152725220E-1,1.295912862E-1,-1.768660545E-2
3.867205363E1,-1.126203537E-1,1.337017417E-1,-1.839518547E-2
3.867455948E1,-9.871673584E-2,1.448200345E-1,1.464009285E-2
3.867706511E1,-1.178913116E-1,1.154629588E-1,2.109193802E-2
3.867957096E1,-1.009950638E-1,1.148474216E-1,4.311990738E-2
3.868207673E1,-8.729648590E-2,1.125622392E-1,8.543229103E-2
3.868458234E1,-8.040237427E-2,9.702408314E-2,8.514285088E-2
3.868708820E1,-6.363010406E-2,8.452957869E-2,8.689475060E-2
3.868959397E1,-1.572418213E-2,7.778972387E-2,5.858492851E-2
3.869209959E1,5.097389221E-3,9.388500452E-2,3.129673004E-2
3.869460543E1,8.205413818E-3,8.891046047E-2,-1.343917847E-2
3.869711120E1,3.302574158E-3,1.067817211E-1,-3.714346886E-2
3.869961704E1,2.765941620E-2,9.516209364E-2,-5.328392982E-2
3.870212258E1,2.065181732E-2,9.942561388E-2,-4.313540459E-2
3.870462842E1,2.310848236E-2,8.792012930E-2,-4.534697533E-2
3.870713404E1,1.157665253E-2,1.102352738E-1,-3.616929054E-2
3.870963989E1,2.618789673E-3,1.280186176E-1,-3.884887695E-2
3.871214565E1,4.678726196E-3,1.288310289E-1,-6.237816811E-2
3.871465126E1,3.122043610E-2,1.055565476E-1,-6.105852127E-2
3.871715711E1,4.625320435E-2,1.128253341E-1,-5.587792397E-2
3.871966288E1,4.188823700E-2,1.015892029E-1,-4.753351212E-2
3.872216872E1,4.062652588E-3,1.364049613E-1,-6.802463531E-2
3.872467431E1,-2.229595184E-2,1.624440551E-1,-5.446100235E-2
3.872718016E1,-1.172637939E-2,1.644442081E-1,-6.783151627E-2
3.872968593E1,2.527236938E-3,1.730102301E-1,-8.430218697E-2
3.873219177E1,-6.270408630E-3,1.547063589E-1,-9.047365189E-2
3.873469731E1,-2.569675446E-2,1.646710932E-1,-7.188558578E-2
3.873720316E1,-7.053661346E-2,2.132967710E-1,-7.320261002E-2
3.873970877E1,-7.479286194E-2,2.423661649E-1,-6.462335587E-2
3.874221462E1,-6.761264801E-2,2.049486935E-1,-6.196522713E-2
3.874472039E1,-5.179786682E-2,1.695944667E-1,-4.808139801E-2
3.874722600E1,-8.083915710E-2,1.327791810E-1,-1.690173149E-2
3.874973185E1,-1.090593338E-1,1.387270987E-1,2.775740623E-2
3.875223762E1,-1.090488434E-1,1.211288571E-1,1.589608192E-2
3.875474349E1,-1.171693802E-1,1.360304654E-1,-1.512575150E-2
3.875724911E1,-1.290540695E-1,1.403954327E-1,-2.866768837E-2
3.875975488E1,-2.783012390E-2,1.952374279E-1,-7.679247856E-2
3.876226072E1,-4.631137848E-2,2.314017713E-1,-2.021372318E-1
3.876476634E1,-1.481056213E-1,1.822807193E-1,-1.081874371E-1
3.876727218E1,-1.140937805E-1,1.625274718E-1,3.376340866E-2
3.876977796E1,-8.734703064E-2,1.733201742E-1,7.153964043E-2
3.877228357E1,-4.516124725E-2,1.571198106E-1,3.805303574E-2
3.877478942E1,-3.636455536E-2,1.559820175E-1,4.674911499E-2
3.877729520E1,-9.344863892E-2,2.863429189E-1,1.787972450E-2
3.877980081E1,-5.624103546E-2,3.242517114E-1,1.676702499E-2
3.878230666E1,3.616333008E-3,2.637565434E-1,-1.704430580E-2
3.878481243E1,8.055019379E-2,1.480172276E-1,7.615709305E-2
3.878731828E1,1.104526520E-1,2.293038368E-2,1.668741703E-1
3.878982389E1,7.884502411E-2,-3.874993324E-2,1.414651871E-1
3.879232966E1,3.242588043E-2,3.016889095E-3,7.071495056E-2
3.879483552E1,1.525878906E-3,4.411685467E-2,2.766489983E-2
3.879734114E1,-3.574371338E-3,3.211688995E-2,-2.723503113E-2
3.879984691E1,3.242588043E-2,3.406685591E-2,-4.433512688E-2
3.880235275E1,1.623439789E-2,6.411755085E-2,-1.627898216E-2
3.880485836E1,6.304740906E-3,9.016013145E-2,-1.319622993E-2
3.880736421E1,-2.738952637E-3,9.630089998E-2,-6.246805191E-3
3.880986998E1,2.755165100E-3,1.320286393E-1,-1.224660873E-2
3.881237560E1,1.464653015E-2,1.474907398E-1,-7.307291031E-3
3.881488145E1,3.824138641E-2,1.424957216E-1,-5.521059036E-3
3.881738723E1,7.089710236E-2,1.447598934E-1,-2.571368217E-2
3.881989307E1,1.397981644E-1,1.588164866E-1,-4.589128494E-2
3.882239869E1,1.584014893E-1,2.092951536E-1,-1.058802605E-1
3.882490445E1,1.494493484E-1,2.847546339E-1,-1.466152668E-1
3.882741032E1,1.239356995E-1,3.439564109E-1,-1.450433731E-1
3.882991594E1,9.992980957E-2,3.141364157E-1,-1.046762466E-1
3.883242170E1,1.508684158E-1,2.924254239E-1,-9.255719185E-2
3.883492755E1,1.880664825E-1,2.268083394E-1,-5.389261246E-2
3.883743317E1,1.920022964E-1,1.668119431E-1,-5.611944199E-2
3.883993900E1,1.893215179E-1,1.177693605E-1,-6.710338593E-2
3.884244477E1,1.553201675E-1,5.055850744E-2,-1.009933949E-1
3.884495039E1,1.328573227E-1,3.663051128E-2,-1.266028881E-1
3.884745623E1,1.090450287E-1,4.534953833E-2,-1.451621056E-1
3.884996198E1,1.104860306E-1,8.770775795E-2,-1.248505116E-1
3.885246783E1,9.174442291E-2,1.389150023E-1,-1.384298801E-1
3.885497345E1,7.608318329E-2,1.714374423E-1,-1.350846291E-1
3.885747921E1,5.226516724E-2,1.941529214E-1,-1.344344616E-1
3.885998504E1,4.461574554E-2,1.964407265E-1,-1.271944046E-1
3.886249066E1,3.983116150E-2,1.970014572E-1,-1.186184883E-1
3.886499643E1,6.686973572E-2,2.021796703E-1,-7.795619965E-2
3.886750227E1,5.493545532E-2,2.058216333E-1,-8.955740929E-2
3.887000788E1,4.405689240E-2,2.179589570E-1,-1.059670448E-1
3.887251372E1,4.028606415E-2,2.402270436E-1,-1.124172211E-1
3.887501949E1,4.323005676E-2,2.491228580E-1,-1.199326515E-1
3.887752511E1,6.544876099E-2,2.594834268E-1,-1.503129005E-1
3.888003099E1,5.150985718E-2,2.455640137E-1,-1.767723560E-1
3.888253676E1,3.771781921E-2,2.509912848E-1,-1.898736954E-1
3.888504238E1,4.084968567E-2,2.582962811E-1,-1.904628277E-1
3.888754822E1,4.614734650E-2,2.665607929E-1,-2.202677727E-1
3.889005400E1,3.017139435E-2,2.427885830E-1,-2.130496502E-1
3.889255985E1,3.355884552E-2,2.482666373E-1,-2.219252586E-1
3.889506547E1,3.130245209E-2,2.465417087E-1,-2.120907307E-1
3.889757123E1,5.594253540E-3,2.328964472E-1,-1.898944378E-1
3.890007687E1,8.299827576E-3,2.518279552E-1,-1.764683723E-1
3.890258271E1,-1.230525970E-2,2.330453694E-1,-1.683340073E-1
3.890508856E1,-2.190208435E-2,2.449113727E-1,-1.691894531E-1
3.890759433E1,-2.867603302E-2,2.327237427E-1,-1.475100517E-1
3.891009998E1,-3.811168671E-2,2.185845375E-1,-1.460649967E-1
3.891260582E1,-4.181194305E-2,2.075648308E-1,-1.129646301E-1
3.891511160E1,-5.171108246E-2,1.885913014E-1,-1.156210899E-1
3.891761744E1,-4.132461548E-2,1.700424552E-1,-1.045205593E-1
3.892012303E1,-5.320072174E-2,1.771813333E-1,-1.142911911E-1
3.892262880E1,-4.585933685E-2,1.705820262E-1,-9.626269341E-2
3.892513442E1,-6.273078918E-2,1.567998827E-1,-1.218516827E-1
3.892764026E1,-6.729984283E-2,1.336834431E-1,-1.137292385E-1
3.893014605E1,-5.031490326E-2,1.170387268E-1,-7.770013809E-2
3.893265167E1,-6.433296204E-2,1.064924896E-1,-6.591892242E-2
3.893515751E1,-6.909084320E-2,1.057514250E-1,-5.634880066E-2
3.893766328E1,-6.209754944E-2,1.069661379E-1,-2.706003189E-2
3.894016912E1,-5.226898193E-2,1.260184646E-1,-1.753759384E-2
3.894267474E1,-3.633499146E-2,1.138853133E-1,-3.473758698E-2
3.894518051E1,-9.341239929E-3,1.147586107E-1,-1.568841934E-2
3.894768635E1,-2.125072479E-2,1.067468226E-1,-3.721284866E-2
3.895019220E1,-1.440811157E-2,1.062967479E-1,-3.233432770E-2
3.895269774E1,-4.817676544E-2,1.016243994E-1,-4.090452194E-2
3.895520358E1,-5.214214325E-2,1.079925001E-1,-4.361557961E-2
3.895770920E1,-6.697654724E-2,1.400085986E-1,-5.507230759E-2
3.896021506E1,-7.372093201E-2,1.255702376E-1,-4.227638245E-2
3.896272083E1,-3.253364563E-2,9.078508615E-2,-2.995371819E-2
3.896522667E1,-3.916358948E-2,6.456428766E-2,-3.086328506E-2
3.896773229E1,-2.682495117E-2,4.007649422E-2,-3.299236298E-2
3.897023805E1,-3.882503510E-2,2.102649212E-2,-4.904222488E-2
3.897274390E1,-3.834819794E-2,-7.149577141E-4,-2.394413948E-2
3.897524951E1,-4.590034485E-2,1.629203558E-2,9.982585907E-3
3.897775528E1,-4.092025757E-2,9.194791317E-3,5.119085312E-3
3.898026113E1,-4.941940308E-2,9.182989597E-3,1.829433441E-2
3.898276674E1,-4.238510132E-2,-7.691144943E-3,2.514767647E-2
3.898527251E1,-5.906486511E-2,-5.347728729E-4,7.412147522E-2
3.898777835E1,-7.320785522E-2,4.512363672E-2,1.096956730E-1
3.899028397E1,-8.278751373E-2,6.217646599E-2,8.487224579E-2
3.899278980E1,-6.070041656E-2,1.112812757E-2,1.101589203E-2
3.899529557E1,-1.198196411E-2,-3.994196653E-2,-2.149963379E-2
3.899780119E1,4.759788513E-3,-1.222000718E-1,-2.914214134E-2
3.900030703E1,3.889274597E-2,-1.671117544E-1,-7.182455063E-2
3.900281280E1,6.823635101E-2,-1.780592799E-1,-1.003627777E-1
3.900531843E1,4.701042175E-2,-1.854293346E-1,-1.226863861E-1
3.900782428E1,8.325672150E-2,-1.942387819E-1,-1.102788448E-1
3.901033005E1,7.187652588E-2,-2.096872330E-1,-1.000895500E-1
3.901283589E1,4.820728302E-2,-2.241982818E-1,-1.155772209E-1
3.901534151E1,1.986980438E-2,-2.135100365E-1,-9.535574913E-2
3.901784728E1,-1.072978973E-2,-2.255463600E-1,-4.962849617E-2
3.902035313E1,3.036975861E-2,-2.545351386E-1,-1.553082466E-2
3.902285874E1,4.461288452E-2,-2.795924544E-1,-1.850676537E-2
3.902536459E1,3.050804138E-2,-2.862811089E-1,3.901553154E-2
3.902787035E1,-1.253890991E-2,-2.890488505E-1,1.072919369E-1
3.903037596E1,-3.171634674E-2,-3.078795671E-1,1.357300282E-1
3.903288181E1,-3.684043884E-2,-2.898028493E-1,1.349942684E-1
3.903538758E1,-5.389881134E-2,-2.878463268E-1,1.367211342E-1
3.903789320E1,-4.401779175E-2,-2.878609896E-1,1.390109062E-1
3.904039907E1,-9.212493896E-4,-3.163871765E-1,1.436586380E-1
3.904290484E1,3.475666046E-2,-3.281157613E-1,1.303517818E-1
3.904541068E1,3.667736053E-2,-3.268042207E-1,1.387398243E-1
3.904791630E1,2.924728394E-2,-3.049407005E-1,1.444127560E-1
3.905042207E1,2.629852295E-2,-2.985636592E-1,1.180136204E-1
3.905292792E1,7.052040100E-2,-3.469036222E-1,8.875203133E-2
3.905543353E1,9.132099152E-2,-3.584595323E-1,1.049692631E-1
3.905793938E1,8.224105835E-2,-3.745087385E-1,1.381800175E-1
3.906044515E1,6.686496735E-2,-3.833861947E-1,1.628532410E-1
3.906295077E1,8.833217621E-2,-3.873778582E-1,1.823320389E-1
3.906545654E1,1.000099182E-1,-4.111906886E-1,2.080247402E-1
3.906796238E1,9.943199158E-2,-4.240040183E-1,2.301032543E-1
3.907046800E1,8.693981171E-2,-4.372200966E-1,2.542369366E-1
3.907297386E1,7.104587555E-2,-4.187861085E-1,2.633428574E-1
3.907547963E1,9.267807007E-2,-4.320549369E-1,2.666556835E-1
3.907798548E1,8.177661896E-2,-4.419991970E-1,2.809972763E-1
3.908049102E1,2.960300446E-2,-4.009843469E-1,2.648358345E-1
3.908299686E1,2.392196655E-2,-3.951124549E-1,2.728457451E-1
3.908550247E1,3.777885437E-2,-3.850110769E-1,2.497811317E-1
3.908800831E1,4.213523865E-2,-4.004123211E-1,2.357478142E-1
3.909051408E1,4.679679871E-2,-4.084427953E-1,2.373342514E-1
3.909301993E1,2.226924896E-2,-4.034264684E-1,2.514185905E-1
3.909552554E1,2.914237976E-2,-4.069412351E-1,2.363996506E-1
3.909803139E1,4.246044159E-2,-3.818035722E-1,2.583289146E-1
3.910053716E1,6.409072876E-2,-3.924008012E-1,2.515590191E-1
3.910304277E1,4.947853088E-2,-3.672459126E-1,2.543451786E-1
3.910554859E1,5.110073090E-2,-3.708246350E-1,2.869708538E-1
3.910805436E1,7.908248901E-2,-4.108335972E-1,3.079116344E-1
3.911055998E1,9.979152679E-2,-4.416848421E-1,2.863078117E-1
3.911306575E1,1.211175919E-1,-4.295309782E-1,2.869791985E-1
3.911557159E1,1.329402924E-1,-4.210020304E-1,2.708973885E-1
3.911807721E1,1.372728348E-1,-4.014070630E-1,2.599053383E-1
3.912058305E1,1.632986069E-1,-3.705230355E-1,2.441844940E-1
3.912308882E1,1.597833633E-1,-3.256942034E-1,2.146778107E-1
3.912559444E1,1.630210876E-1,-3.034349680E-1,1.398167610E-1
3.912810026E1,1.766920090E-1,-2.899351120E-1,1.178562641E-1
3.913060604E1,1.820011139E-1,-3.169077039E-1,1.012051105E-1
3.913311188E1,1.818265915E-1,-3.490968347E-1,8.649110794E-2
3.913561750E1,1.801452637E-1,-3.081405163E-1,1.077516079E-1
3.913812327E1,1.888561249E-1,-3.027176261E-1,1.237070560E-1
3.914062910E1,1.819505692E-1,-2.788254619E-1,1.217305660E-1
3.914313472E1,1.771526337E-1,-2.630802989E-1,1.217372417E-1
3.914564056E1,1.748409271E-1,-2.586742043E-1,1.415922642E-1
3.914814633E1,1.574487686E-1,-2.572479248E-1,1.166095734E-1
3.915065193E1,1.335935593E-1,-2.244066596E-1,1.075925827E-1
3.915315778E1,1.404848099E-1,-2.161629200E-1,5.597639084E-2
3.915566355E1,1.317176819E-1,-2.196727395E-1,5.920314789E-2
3.915816916E1,1.369400024E-1,-2.299506068E-1,2.546191216E-2
3.916067501E1,1.270217896E-1,-2.286979556E-1,4.163026810E-3
3.916318078E1,1.101732254E-1,-2.218700051E-1,1.340675354E-2
3.916568663E1,1.033258438E-1,-2.037472725E-1,-2.269792557E-2
3.916819224E1,7.730484009E-2,-1.816186905E-1,-2.468800545E-2
3.917069801E1,7.058620453E-2,-1.870025396E-1,1.335525513E-2
3.917320385E1,4.858398438E-2,-1.905792356E-1,4.182815552E-3
3.917570947E1,2.274513245E-2,-1.886922121E-1,4.063606262E-3
3.917821524E1,2.659511566E-2,-1.860218644E-1,2.400183678E-2
3.918072109E1,2.464580536E-2,-1.720718741E-1,3.210186958E-2
3.918322671E1,1.459503174E-2,-1.641218662E-1,4.605197906E-2
3.918573255E1,2.940082550E-2,-1.549504995E-1,4.514408112E-2
3.918823832E1,2.930068970E-2,-1.873475909E-1,5.851387978E-2
3.919074395E1,-1.649856567E-3,-1.849699020E-1,1.799798012E-2
3.919324979E1,-1.668071747E-2,-1.776938438E-1,1.447367668E-2
3.919575556E1,-3.758525848E-2,-1.643397212E-1,2.431797981E-2
3.919826141E1,-1.863288879E-2,-1.728507876E-1,3.311920166E-2
3.920076705E1,-4.280853271E-2,-1.799850464E-1,5.630660057E-2
3.920327282E1,-3.088855743E-2,-1.577925682E-1,7.791256905E-2
3.920577866E1,-2.903842926E-2,-1.322768927E-1,6.994867325E-2
3.920828428E1,-1.722431183E-2,-1.263690591E-1,1.003515720E-1
3.921079002E1,-1.950836182E-2,-1.129676104E-1,6.856489182E-2
3.921329587E1,-2.471637726E-2,-1.160653830E-1,8.855414391E-2
3.921580149E1,-2.666664124E-2,-1.300154328E-1,7.955408096E-2
3.921830733E1,-1.778411865E-2,-1.096801162E-1,6.697297096E-2
3.922081310E1,-3.187465668E-2,-8.234387636E-2,5.173087120E-2
3.922331871E1,-2.972507477E-2,-7.834243774E-2,5.673694611E-2
3.922582455E1,-3.674888611E-2,-7.086449862E-2,2.367877960E-2
3.922833033E1,-2.940082550E-2,-7.973122597E-2,-4.928112030E-3
3.923083617E1,-3.625774384E-2,-7.603722811E-2,-2.351403236E-2
3.923334180E1,-2.595043182E-2,-6.843215227E-2,-4.014921188E-2
3.923584756E1,-3.559398651E-2,-6.751692295E-2,-4.627943039E-2
3.923835341E1,-5.424022675E-2,-5.290287733E-2,-8.141756058E-2
3.924085903E1,-6.361484528E-2,-4.733598232E-2,-8.539366722E-2
3.924336479E1,-4.321479797E-2,-4.876011610E-2,-8.637905121E-2
3.924587064E1,-5.467605591E-2,-6.513422728E-2,-9.529995918E-2
3.924837625E1,-7.417488098E-2,-6.648719311E-2,-9.435749054E-2
3.925088210E1,-7.773113251E-2,-8.084291220E-2,-9.826326370E-2
3.925338788E1,-6.122016907E-2,-9.391504526E-2,-8.730316162E-2
3.925589349E1,-5.093002319E-2,-8.817219734E-2,-6.553316116E-2
3.925839934E1,-6.754970551E-2,-7.371807098E-2,-5.286049843E-2
3.926090511E1,-4.024505615E-2,-8.283370733E-2,-4.930186272E-2
3.926341095E1,-3.997135162E-2,-7.717210054E-2,-4.385471344E-2
3.926591660E1,-5.972957611E-2,-8.386486769E-2,-2.246546745E-2
3.926842237E1,-5.156803131E-2,-8.108717203E-2,-2.705931664E-2
3.927092821E1,-5.436038971E-2,-8.776724339E-2,-1.464843750E-2
3.927343383E1,-5.417728424E-2,-8.408069611E-2,-1.945543289E-2
3.927593961E1,-4.200363159E-2,-8.174085617E-2,-2.026557922E-3
3.927844546E1,-1.483726501E-2,-7.096266747E-2,-1.888799667E-2
3.928095108E1,1.427650452E-3,-6.155294180E-2,-2.040624619E-2
3.928345692E1,-3.437995911E-3,-8.184778690E-2,-4.895377159E-2
3.928596270E1,-3.200531006E-3,-6.741660833E-2,-3.350090981E-2
3.928846832E1,1.198482513E-2,-7.671874762E-2,-4.818558693E-2
3.929097416E1,3.613948822E-2,-7.344931364E-2,-5.686926842E-2
3.929347993E1,1.443195343E-2,-6.604558229E-2,-5.652713776E-2
3.929598555E1,-4.319190979E-3,-6.352984905E-2,-5.890417099E-2
3.929849131E1,5.946159363E-3,-4.621291161E-2,-6.057167053E-2
3.930099716E1,6.244659424E-3,-5.498206615E-2,-5.480647087E-2
3.930350278E1,1.337242126E-2,-4.073220491E-2,-7.338118553E-2
3.930600861E1,1.879787445E-2,-4.258805513E-2,-7.067799568E-2
3.930851438E1,2.284526825E-2,-5.017244816E-2,-4.835510254E-2
3.931102023E1,1.623821259E-2,-5.689692497E-2,-5.073213577E-2
3.931352584E1,2.332687378E-2,-7.034260035E-2,-6.238698959E-2
3.931603172E1,4.366683960E-2,-7.310760021E-2,-6.891775131E-2
3.931853750E1,4.080963135E-2,-5.281740427E-2,-5.860114098E-2
3.932104311E1,4.791927338E-2,-7.957589626E-2,-6.820893288E-2
3.932354895E1,5.318355560E-2,-5.524754524E-2,-7.479047775E-2
3.932605473E1,4.137897491E-2,-6.020206213E-2,-8.437347412E-2
3.932856058E1,4.847145081E-2,-7.384628057E-2,-7.906723022E-2
3.933106612E1,4.855918884E-2,-7.570332289E-2,-5.982708931E-2
3.933357196E1,6.065464020E-2,-6.823599339E-2,-4.964089394E-2
3.933607760E1,7.258224487E-2,-4.967951775E-2,-2.378940582E-2
3.933858344E1,9.461116791E-2,-3.243297338E-2,-2.581858635E-2
3.934108921E1,9.150600433E-2,-3.099787235E-2,-2.595615387E-2
3.934359483E1,1.035232544E-1,-3.280967474E-2,-4.499840736E-2
3.934610065E1,8.949947357E-2,-3.341436386E-2,-4.999184608E-2
3.934860642E1,7.547283173E-2,-1.640355587E-2,-5.987358093E-2
3.935111204E1,7.241821289E-2,-1.011085510E-2,-8.384704590E-2
3.935361788E1,3.467369080E-2,-1.118421555E-3,-9.235453606E-2
3.935612364E1,5.861663818E-2,1.090586185E-3,-8.331751823E-2
3.935862949E1,6.855869293E-2,-1.163744926E-2,-9.541320801E-2
3.936113510E1,7.070350647E-2,-2.659201622E-3,-1.110045910E-1
3.936364095E1,5.361366272E-2,1.341050863E-2,-1.040840149E-1
3.936614672E1,2.478218079E-2,1.330077648E-2,-1.104712486E-1
3.936865233E1,-6.141662598E-3,1.736795902E-2,-9.623980522E-2
3.937115818E1,-1.479530334E-2,7.415115833E-3,-9.540796280E-2
3.937366395E1,-7.538795471E-3,3.118097782E-2,-1.185109615E-1
3.937616956E1,-1.245117188E-2,4.003131390E-2,-1.252477169E-1
3.937867541E1,-5.041122437E-3,3.481781483E-2,-1.243252754E-1
3.938118118E1,2.883434296E-2,2.904629707E-2,-1.552648544E-1
3.938368679E1,2.423191071E-2,1.990091801E-2,-1.473605633E-1
3.938619264E1,2.401161194E-2,3.098076582E-2,-1.026875973E-1
3.938869841E1,2.923202515E-2,1.078927517E-2,-1.159729958E-1
3.939120421E1,1.009464264E-2,2.009397745E-2,-1.094751358E-1
3.939370983E1,2.300262451E-3,4.182583094E-2,-1.106410027E-1
3.939621560E1,-4.817008972E-3,2.906304598E-2,-1.109828949E-1
3.939872144E1,-1.342868805E-2,2.080786228E-2,-1.200768948E-1
3.940122704E1,-3.262805939E-2,3.493279219E-2,-1.052484512E-1
3.940373288E1,-2.814865112E-2,1.784664392E-2,-1.121478081E-1
3.940623865E1,-2.528381348E-2,3.405863047E-2,-1.283617020E-1
3.940874427E1,-1.593780518E-2,3.080397844E-2,-1.013886929E-1
3.941125009E1,-1.187324524E-3,3.307682276E-2,-1.088659763E-1
3.941375586E1,2.014827728E-2,2.092093229E-2,-1.390872002E-1
3.941626148E1,2.972030640E-2,3.459870815E-3,-1.237092018E-1
3.941876732E1,2.936458588E-2,2.853274345E-3,-1.164820194E-1
3.942127310E1,-1.190185547E-3,-1.606738567E-2,-1.086390018E-1
3.942377894E1,-1.281452179E-2,-4.021465778E-3,-1.107554436E-1
3.942628456E1,-6.412792206E-2,1.236015558E-2,-7.729697227E-2
3.942879032E1,-7.091903687E-2,-7.634043694E-3,-5.570673943E-2
3.943129617E1,-6.406021118E-2,-1.010620594E-2,-6.504702568E-2
3.943380179E1,-7.575035095E-2,-2.188450098E-2,-6.736254692E-2
3.943630760E1,-9.493637085E-2,-5.441129208E-3,-6.967973709E-2
3.943881337E1,-7.072353363E-2,1.162332296E-2,-4.710698128E-2
3.944131899E1,-4.683017731E-2,-1.975536346E-2,-5.524206161E-2
3.944382483E1,-4.656505585E-2,-3.933650255E-2,-4.975104332E-2
3.944633060E1,-8.458232880E-2,-1.791095734E-2,-2.579879761E-2
3.944883644E1,-1.324481964E-1,2.700519562E-2,-8.512735367E-3
3.945134206E1,-1.496019363E-1,1.934629679E-2,1.551628113E-2
3.945384783E1,-1.444406509E-1,1.424223185E-2,2.976989746E-2
3.945635367E1,-1.343765259E-1,1.179873943E-2,6.253480911E-3
3.945885928E1,-1.253070831E-1,4.785716534E-3,2.141952515E-2
3.946136505E1,-1.150083542E-1,-5.378127098E-4,3.107881546E-2
3.946387090E1,-1.369819641E-1,-2.433758974E-2,2.912902832E-2
3.946637651E1,-1.725263596E-1,-2.660721540E-2,5.426621437E-2
3.946888235E1,-1.548767090E-1,9.079933167E-3,7.273459435E-2
3.947138812E1,-1.479339600E-1,-5.819082260E-3,4.581689835E-2
3.947389374E1,-1.088304520E-1,-1.974022388E-2,1.001739502E-2
3.947639959E1,-9.907150269E-2,-3.678947687E-2,1.873302460E-2
3.947890536E1,-8.901023865E-2,-1.966834068E-2,3.883123398E-2
3.948141120E1,-8.329486847E-2,-2.176725864E-2,4.067397118E-2
3.948391674E1,-6.907749176E-2,-5.329495668E-2,1.852512360E-3
3.948642257E1,-5.421829224E-2,-4.849863052E-2,2.098584175E-2
3.948892819E1,-7.325458527E-2,-1.729041338E-2,3.103590012E-2
3.949143404E1,-3.820514679E-2,-7.946550846E-3,-5.335807800E-4
3.949393981E1,-1.708507538E-2,9.085178375E-3,-2.618432045E-2
3.949644564E1,2.943038940E-3,3.320574760E-3,-1.173448563E-2
3.949895125E1,2.190971375E-2,3.277599812E-3,-3.062009811E-2
3.950145710E1,1.106929779E-2,2.574741840E-3,-7.573890686E-2
3.950396287E1,-1.454734802E-2,7.622122765E-3,-8.993840218E-2
3.950646848E1,-3.225898743E-2,4.241484404E-2,-1.105430126E-1
3.950897432E1,-2.667236328E-2,2.720791101E-2,-1.403968334E-1
3.951148009E1,-2.832794189E-2,5.350112915E-3,-1.439576149E-1
3.951398594E1,-1.587009430E-2,3.599393368E-2,-1.479368210E-1
3.951649148E1,1.231575012E-2,3.006470203E-2,-1.608388424E-1
3.951899733E1,2.664947510E-2,3.477770090E-2,-1.679902077E-1
3.952150295E1,1.381969452E-2,2.174305916E-2,-1.690454483E-1
3.952400880E1,1.809787750E-2,2.158832550E-2,-1.522266865E-1
3.952651457E1,-6.869316101E-3,4.946386814E-2,-1.205694675E-1
3.952902018E1,5.418777466E-3,5.800563097E-2,-1.078071594E-1
3.953152603E1,-1.268005371E-2,2.795886993E-2,-1.154241562E-1
3.953403180E1,-5.320358276E-2,5.452221632E-2,-1.063892841E-1
3.953653764E1,-3.736591339E-2,4.132324457E-2,-8.318543434E-2
3.953904325E1,-6.400871277E-2,4.609793425E-2,-9.128713608E-2
3.954154902E1,-5.604743958E-2,5.600601435E-2,-1.178874969E-1
3.954405487E1,-3.860855103E-2,6.733357906E-2,-1.146502495E-1
3.954656048E1,-2.283000946E-2,4.351550341E-2,-1.366617680E-1
3.954906626E1,-8.521080017E-3,3.514051437E-2,-1.167161465E-1
3.955157211E1,-5.867004395E-3,8.830130100E-3,-8.835220337E-2
3.955407772E1,1.128387451E-2,-8.047521114E-3,-6.690478325E-2
3.955658357E1,-9.347915649E-3,1.475036144E-3,-4.601383209E-2
3.955908937E1,-3.601455688E-2,1.498919725E-2,-3.611588478E-2
3.956159499E1,-5.990123749E-2,4.172629118E-2,-2.169823647E-2
3.956410083E1,-4.280185699E-2,3.338998556E-2,-3.540110588E-2
3.956660661E1,-2.051830292E-2,2.082389593E-2,-2.769112587E-2
3.956911246E1,-2.524089813E-2,1.346009970E-2,-2.211856842E-2
3.957161808E1,-2.519798279E-2,-7.458508015E-3,1.502037048E-5
3.957412384E1,-6.259918213E-3,-1.925247908E-2,-2.938985825E-3
3.957662969E1,3.816604614E-3,-2.245676517E-2,1.621317863E-2
3.957913531E1,-2.807903290E-2,-1.080811024E-2,3.830623627E-2
3.958164108E1,5.744934082E-3,8.006036282E-3,1.415562630E-2
3.958414693E1,3.700256348E-3,1.298081875E-2,2.101039886E-2
3.958665254E1,-4.181861877E-3,5.560338497E-3,3.129482269E-2
3.958915839E1,1.564598083E-2,-1.336592436E-2,2.588272095E-2
3.959166415E1,3.849983215E-3,-1.365512609E-2,7.517337799E-3
3.959416977E1,-1.311111450E-2,7.304906845E-3,7.494688034E-3
3.959667561E1,4.056930542E-3,-5.008578300E-3,1.497340202E-2
3.959918138E1,1.612472534E-2,-2.074670792E-2,-2.285337448E-2
3.960168724E1,2.346324921E-2,-5.037963390E-3,-8.191347122E-3
3.960419286E1,2.049446106E-2,4.956483841E-3,-2.010464668E-2
3.960669862E1,4.724502563E-3,3.332656622E-2,-1.228570938E-2
3.960920447E1,1.769065857E-3,2.319288254E-2,-1.708650589E-2
3.961171009E1,-1.185131073E-2,2.770590782E-2,-1.127576828E-2
3.961421585E1,-6.862640381E-3,7.203185558E-2,-2.305579185E-2
3.961672170E1,1.751518250E-2,4.372578859E-2,-4.807639122E-2
3.961922732E1,4.370021820E-2,2.466112375E-2,-2.154421806E-2
3.962173316E1,4.063320160E-2,3.634840250E-2,-4.687786102E-3
3.962423892E1,6.446933746E-2,4.691338539E-2,1.706027985E-2
3.962674454E1,6.453227997E-2,4.462414980E-2,1.727724075E-2
3.962925038E1,6.444740295E-2,3.727257252E-2,-6.858110428E-3
3.963175615E1,6.750011444E-2,6.077075005E-2,9.413242340E-3
3.963426203E1,8.145332336E-2,5.541336536E-2,5.107402802E-3
3.963676765E1,8.849048615E-2,8.069115877E-2,-1.648402214E-2
3.963927342E1,1.003818512E-1,7.313376665E-2,-1.664137840E-2
3.964177926E1,1.055335999E-1,6.063210964E-2,-4.421472549E-3
3.964428489E1,1.193351746E-1,6.721889973E-2,-6.617307663E-3
3.964679073E1,1.003198624E-1,6.464654207E-2,-6.418704987E-3
3.964929650E1,9.327125549E-2,8.801877499E-2,-4.678964615E-3
3.965180212E1,8.417510986E-2,8.499962091E-2,3.814697266E-4
3.965430795E1,9.789943695E-2,1.082363725E-1,1.696133614E-2
3.965681372E1,6.365680695E-2,1.280971169E-1,4.742860794E-3
3.965931934E1,4.958057404E-2,1.410770416E-1,-1.227641106E-2
3.966182518E1,5.941295624E-2,1.517274976E-1,4.441499710E-3
3.966433096E1,6.606674194E-2,1.296899915E-1,2.312183380E-2
3.966683680E1,8.671665192E-2,1.355040669E-1,2.942657471E-2
3.966934242E1,7.744693756E-2,1.295469403E-1,2.900052071E-2
3.967184819E1,7.407951355E-2,1.524030566E-1,3.047752380E-2
3.967435402E1,2.571868896E-2,1.658866405E-1,5.184030533E-2
3.967685964E1,-5.121231079E-4,1.835086346E-1,5.356502533E-2
3.967936549E1,-1.978397369E-2,1.861006021E-1,4.626417160E-2
3.968187126E1,-2.679729462E-2,2.049583793E-1,3.919100761E-2
3.968437687E1,-5.093193054E-2,1.866797209E-1,3.416323662E-2
3.968688271E1,-7.992267609E-2,1.927028298E-1,2.966904640E-2
3.968938848E1,-6.801509857E-2,2.054104805E-1,2.265763283E-2
3.969189410E1,-5.776023865E-2,1.923832893E-1,1.132988930E-2
3.969439994E1,-4.882335663E-2,1.772630811E-1,6.464481354E-3
3.969690573E1,-3.642177582E-2,1.503520012E-1,-2.540826797E-2
3.969941157E1,-2.943325043E-2,1.511814594E-1,6.196498871E-4
3.970191719E1,-2.898883820E-2,1.333826184E-1,-1.213717461E-2
3.970442296E1,-1.645469666E-2,1.303437352E-1,-3.276705742E-2
3.970692881E1,-2.336883545E-2,1.193631887E-1,-5.323052406E-2
3.970943443E1,-1.120662689E-2,1.041620970E-1,-5.564069748E-2
3.971194019E1,-1.069259644E-2,1.292973757E-1,-2.726197243E-2
3.971444604E1,-1.030635834E-2,1.246166825E-1,2.880430222E-2
3.971695162E1,-2.244281769E-2,1.545267105E-1,2.166891098E-2
3.971945746E1,-2.452087402E-2,1.583294272E-1,2.158427238E-2
3.972196323E1,-1.919364929E-2,1.496335864E-1,1.766204834E-2
3.972446908E1,-2.726459503E-2,1.296569705E-1,2.655887604E-2
3.972697460E1,1.204395294E-2,1.271218061E-1,4.733920097E-2
3.972948045E1,3.296375275E-2,1.071561575E-1,-1.267862320E-2
3.973198607E1,4.556274414E-2,1.138637066E-1,-2.816271782E-2
3.973449191E1,4.553031921E-2,1.010944247E-1,-3.018879890E-2
3.973699766E1,4.418563843E-2,1.028007269E-1,-4.835033417E-2
3.973950327E1,3.510093689E-2,8.561980724E-2,-5.346846581E-2
3.974200912E1,4.209327698E-2,6.205433607E-2,-6.515836716E-2
3.974451489E1,5.928802490E-2,7.354176044E-2,-7.879042625E-2
3.974702071E1,4.829311371E-2,8.048182726E-2,-1.263923645E-1
3.974952633E1,6.047058105E-2,6.310701370E-2,-1.119489670E-1
3.975203218E1,5.628299713E-2,4.908102751E-2,-1.318964958E-1
3.975453795E1,4.063320160E-2,4.086172581E-2,-1.212203503E-1
3.975704355E1,-1.519203186E-3,3.184884787E-2,-9.019279480E-2
3.975954931E1,-1.269435883E-2,3.885996342E-2,-6.217837334E-2
3.976205516E1,-3.451347351E-3,9.682178497E-3,-7.165050507E-2
3.976456078E1,2.827358246E-2,-3.872096539E-3,-9.116983414E-2
3.976706664E1,4.742050171E-2,-2.279931307E-2,-1.126768589E-1
3.976957241E1,8.166122437E-2,-8.235979080E-2,-1.022691727E-1
3.977207802E1,5.623245239E-2,-8.660495281E-2,-8.020186424E-2
3.977458387E1,2.238178253E-2,-8.596533537E-2,-5.781102180E-2
3.977708964E1,2.081394196E-2,-7.537508011E-2,-1.908898354E-2
3.977959523E1,2.801036835E-2,-9.185349941E-2,-6.521463394E-3
3.978210107E1,2.111530304E-2,-9.791922569E-2,1.027584076E-2
3.978460684E1,1.619720459E-2,-8.050131798E-2,8.654117584E-3
3.978711269E1,1.619911194E-2,-9.658896923E-2,1.254463196E-2
3.978961830E1,-5.627632141E-3,-1.312326193E-1,1.245355606E-2
3.979212406E1,-9.433746338E-3,-1.254270077E-1,2.080559731E-2
3.979462991E1,6.672859192E-3,-1.325931549E-1,5.377483368E-2
3.979713553E1,9.561538696E-3,-1.352918148E-1,5.131983757E-2
3.979964136E1,-7.628440857E-3,-1.271834970E-1,5.780649185E-2
3.980214713E1,-5.390167236E-3,-1.147817969E-1,3.914642334E-2
3.980465275E1,-5.414962769E-3,-1.237149239E-1,3.587174416E-2
3.980715859E1,-2.784729004E-4,-1.044523120E-1,2.920770645E-2
3.980966435E1,9.696960449E-3,-9.844076633E-2,3.378057480E-2
3.981217019E1,3.072166443E-2,-1.192749143E-1,4.580569267E-2
3.981467581E1,2.165889740E-2,-9.742033482E-2,2.854609489E-2
3.981718158E1,1.652240753E-2,-1.023332477E-1,4.540610313E-2
3.981968742E1,4.421234131E-3,-8.952438831E-2,4.501366615E-2
3.982219305E1,-5.397796631E-4,-6.819808483E-2,3.820037842E-2
3.982469882E1,2.632236481E-2,-7.741695642E-2,4.269957542E-2
3.982720467E1,3.517150879E-2,-8.985316753E-2,4.438734055E-2
3.982971028E1,3.301239014E-2,-9.243702888E-2,5.809736252E-2
3.983221609E1,3.754615784E-3,-7.469832897E-2,6.060743332E-2
3.983472187E1,1.062107086E-2,-6.214576960E-2,6.007957458E-2
3.983722748E1,1.334095001E-2,-2.537488937E-2,7.165837288E-2
3.983973333E1,1.512145996E-2,-2.321475744E-2,4.212427139E-2
3.984223910E1,2.907943726E-2,-3.108698130E-2,1.603817940E-2
3.984474492E1,2.198791504E-2,-4.972577095E-2,1.286220551E-2
3.984725054E1,2.189540863E-2,-6.048607826E-2,1.083827019E-2
3.984975630E1,1.273155212E-2,-6.493115425E-2,3.456711769E-2
3.985226215E1,2.458000183E-2,-5.245727301E-2,4.102253914E-2
3.985476775E1,4.739093781E-2,-5.713373423E-2,3.566169739E-2
3.985727359E1,1.415538788E-2,-3.195613623E-2,4.534864426E-2
3.985977936E1,1.401805878E-2,-3.669726849E-2,3.491950035E-2
3.986228498E1,3.291988373E-2,-4.140520096E-2,2.572631836E-2
3.986479082E1,3.783130646E-2,-4.111629725E-2,3.540992737E-3
3.986729658E1,6.867694855E-2,-4.997766018E-2,1.731419563E-2
3.986980219E1,4.652595520E-2,-2.074962854E-2,1.705431938E-2
3.987230804E1,4.920482635E-2,-9.643077850E-3,2.143383026E-2
3.987481381E1,6.320953369E-2,-3.343516588E-2,1.217389107E-2
3.987731965E1,4.880237579E-2,-2.424186468E-2,-5.346775055E-3
3.987982525E1,2.680778503E-2,-2.197319269E-2,2.034997940E-2
3.988233102E1,7.307052612E-3,-3.868281841E-3,4.346275330E-2
3.988483687E1,3.306102753E-2,-1.069861650E-2,4.299378395E-2
3.988734249E1,4.763984680E-2,-1.134145260E-2,3.720259666E-2
3.988984837E1,2.837467194E-2,-1.404374838E-2,3.646254539E-2
3.989235414E1,5.609035492E-2,-6.975650787E-3,3.604197502E-2
3.989485976E1,6.405067444E-2,3.026545048E-3,1.967358589E-2
3.989736552E1,6.369972229E-2,2.320927382E-2,2.801966667E-2
3.989987137E1,5.143737793E-2,3.682243824E-2,4.952931404E-2
3.990237699E1,2.890491486E-2,1.996552944E-2,5.546498299E-2
3.990488283E1,1.667785645E-2,1.486968994E-2,5.301976204E-2
3.990738860E1,-7.592201233E-3,1.135939360E-2,6.449747086E-2
3.990989444E1,-7.723808289E-3,2.267199755E-2,4.227447510E-2
3.991240008E1,2.797603607E-2,5.105853081E-2,4.873561859E-2
3.991490584E1,3.979682922E-2,4.169696569E-2,2.738738060E-2
3.991741146E1,3.691673279E-3,3.597146273E-2,2.924418449E-2
3.991991731E1,-2.232360840E-2,6.147986650E-2,1.927709579E-2
3.992242315E1,-2.231979370E-2,7.242345810E-2,2.248573303E-2
3.992492872E1,-8.392333984E-3,6.988048553E-2,-4.450082779E-3
3.992743456E1,1.070404053E-2,7.379472256E-2,-2.319478989E-2
3.992994033E1,-1.310348511E-3,5.824792385E-2,-8.116006851E-3
3.993244618E1,-5.329132080E-3,4.544752836E-2,-1.089215279E-2
3.993495179E1,-1.733589172E-2,6.400728226E-2,-3.766298294E-3
3.993745764E1,-1.728153229E-2,7.800418139E-2,-4.417896271E-4
3.993996341E1,-1.028442383E-2,9.330064058E-2,1.527786255E-3
3.994246902E1,-2.216911316E-2,8.047044277E-2,-1.200056076E-2
3.994497486E1,8.762359619E-3,6.381708384E-2,-1.181077957E-2
3.994748063E1,8.787155151E-3,5.327832699E-2,-2.171158791E-2
3.994998625E1,1.945495605E-3,6.467229128E-2,-3.045892715E-2
3.995249209E1,-2.494239807E-2,7.600492239E-2,-4.124641418E-3
3.995499789E1,-3.681659698E-2,7.347315550E-2,-1.627683640E-3
3.995750374E1,-1.687812805E-2,7.988941669E-2,-5.583047867E-3
3.996000936E1,-1.270103455E-2,8.419746161E-2,-2.916145325E-2
3.996251512E1,-9.557723999E-3,8.038568497E-2,-4.772543907E-2
3.996502097E1,-1.238346100E-2,8.256781101E-2,-5.511808395E-2
3.996752663E1,-6.719779968E-2,1.248536706E-1,-5.637431145E-2
3.997003239E1,-5.506324768E-2,1.213927865E-1,-4.398393631E-2
3.997253824E1,-1.587581635E-2,1.042793989E-1,-6.044769287E-2
3.997504386E1,-3.693580627E-3,1.004512310E-1,-7.381415367E-2
3.997754970E1,1.238059998E-2,7.629740238E-2,-4.778003693E-2
3.998005547E1,2.724838257E-2,8.611166477E-2,-1.399087906E-2
3.998256108E1,2.722263336E-2,6.353402138E-2,-1.695251465E-2
3.998506693E1,5.127906799E-3,6.780141592E-2,-4.928588867E-3
3.998757270E1,5.030632019E-3,8.467578888E-2,-1.711082458E-2
3.999007856E1,2.701568604E-2,9.366846085E-2,-4.321765900E-2
3.999258417E1,4.288768768E-2,7.896405458E-2,-2.621030807E-2
3.999508994E1,5.277156830E-2,5.521118641E-2,-2.169227600E-2
3.999759579E1,7.858848572E-2,5.286931992E-2,4.173517227E-3
4.000010140E1,8.140087128E-2,4.792273045E-3,3.270387650E-2
4.000260716E1,6.412887573E-2,5.148112774E-3,3.188586235E-2
4.000511301E1,-3.054618835E-3,3.784745932E-2,3.568387032E-2
4.000761863E1,1.856517792E-2,4.574078321E-2,4.670810699E-2
4.001012452E1,3.916072845E-2,4.590731859E-2,-2.270698547E-3
4.001263029E1,6.306457520E-2,2.574199438E-2,5.543231964E-4
4.001513590E1,6.968116760E-2,7.022142410E-3,2.543854713E-2
4.001764175E1,5.045127869E-2,-2.878618240E-2,4.192590714E-2
4.002014752E1,3.282260895E-2,-4.399174452E-2,8.327484131E-2
4.002265339E1,1.511573792E-3,-3.175663948E-2,9.462261200E-2
4.002515900E1,8.260726929E-3,-4.849892855E-2,1.078062057E-1
4.002766477E1,3.462123871E-2,-6.943798065E-2,9.024667740E-2
4.003017062E1,2.917098999E-2,-8.966344595E-2,1.051878929E-1
4.003267623E1,3.366661072E-2,-1.006272435E-1,1.116886139E-1
4.003518208E1,3.988742828E-2,-1.186916232E-1,1.309204102E-1
4.003768785E1,6.342697144E-2,-1.137095094E-1,1.296734810E-1
4.004019346E1,7.713222504E-2,-1.318033934E-1,1.234719753E-1
4.004269930E1,5.947399139E-2,-1.328714490E-1,1.130053997E-1
4.004520507E1,7.408714294E-2,-1.229671240E-1,1.189811230E-1
4.004771068E1,6.143951416E-2,-9.034717083E-2,1.313071251E-1
4.005021653E1,8.017921448E-2,-1.016577482E-1,9.444689751E-2
4.005272230E1,6.270885468E-2,-1.111160517E-1,8.411836624E-2
4.005522814E1,5.538940430E-2,-8.646899462E-2,7.842278481E-2
4.005773376E1,4.294204712E-2,-8.398640156E-2,7.729744911E-2
4.006023953E1,4.979515076E-2,-6.848323345E-2,5.470347404E-2
4.006274538E1,4.735660553E-2,-6.439769268E-2,3.797554970E-2
4.006525100E1,4.907131195E-2,-5.358219147E-2,3.392124176E-2
4.006775682E1,3.707122803E-2,-4.653221369E-2,6.482124329E-2
4.007026260E1,3.662300110E-2,-1.959949732E-2,6.184482574E-2
4.007276821E1,1.223850250E-2,-1.780843735E-2,3.997087479E-2
4.007527406E1,5.133628845E-3,-3.651511669E-2,1.982569695E-2
4.007777983E1,1.487350464E-2,-3.436833620E-2,2.209949493E-2
4.008028567E1,9.663581848E-3,-7.307231426E-3,2.678060532E-2
4.008279129E1,1.442241669E-2,-5.546271801E-3,2.601981163E-2
4.008529706E1,7.308006287E-3,-1.738250256E-2,1.787757874E-2
4.008780290E1,2.612400055E-2,-1.050752401E-2,8.369445801E-3
4.009030852E1,1.116943359E-2,-2.738302946E-2,-1.360821724E-2
4.009281436E1,2.307701111E-2,-2.227222919E-2,-3.978729248E-2
4.009531990E1,1.613330841E-2,-2.910643816E-2,-3.761887550E-2
4.009782575E1,5.401515961E-2,-4.571354389E-2,-6.184816360E-2
4.010033152E1,6.613445282E-2,-5.442142487E-2,-6.867647171E-2
4.010283737E1,6.912422180E-2,-5.926811695E-2,-8.974695206E-2
4.010534298E1,6.599712372E-2,-2.793961763E-2,-8.304977417E-2
4.010784883E1,7.812023163E-2,-2.781563997E-2,-8.278441429E-2
4.011035461E1,7.141113281E-2,-3.470230103E-2,-1.093719006E-1
4.011286045E1,6.912612915E-2,-3.437328339E-2,-1.139202118E-1
4.011536607E1,6.628417969E-2,-2.912700176E-2,-9.257531166E-2
4.011787183E1,6.890583038E-2,-4.070061445E-2,-5.048918724E-2
4.012037768E1,2.314567566E-2,-3.654706478E-2,-5.022001266E-2
4.012288330E1,3.659248352E-3,-2.596360445E-2,-1.039552689E-2
4.012538906E1,8.135795593E-3,-4.206210375E-2,7.379531860E-3
4.012789468E1,-5.812644958E-3,-2.681368589E-2,7.342815399E-3
4.013040054E1,-1.073932648E-2,-4.649895430E-2,7.320880890E-3
4.013290631E1,-1.814174652E-2,-4.754120111E-2,-2.686262131E-3
4.013541215E1,-3.015041351E-2,-3.034061193E-2,2.125048637E-2
4.013791777E1,-3.346633911E-2,-4.847359657E-2,1.240897179E-2
4.014042352E1,-4.773044586E-2,-6.473076344E-2,1.945829391E-2
4.014292937E1,-4.269695282E-2,-6.720739603E-2,4.552364349E-3
4.014543498E1,-3.552532196E-2,-6.666076183E-2,-9.220600128E-3
4.014794083E1,-5.079174042E-2,-4.592192173E-2,3.984212875E-3
4.015044661E1,-6.708908081E-2,-5.538552999E-2,8.240938187E-3
4.015295223E1,-7.193183899E-2,-7.390719652E-2,6.436586380E-3
4.015545807E1,-9.423160553E-2,-6.823796034E-2,2.479028702E-2
4.015796385E1,-9.819889069E-2,-6.585246325E-2,2.190089226E-2
4.016046970E1,-1.180620193E-1,-8.229678869E-2,2.995395660E-2
4.016297532E1,-1.104030609E-1,-7.191550732E-2,6.922769547E-2
4.016548116E1,-1.034164429E-1,-7.148629427E-2,9.089517593E-2
4.016798693E1,-1.016826630E-1,-8.083409071E-2,9.027600288E-2
4.017049279E1,-7.781028748E-2,-8.242738247E-2,1.089279652E-1
4.017299833E1,-8.703613281E-2,-9.176069498E-2,1.132390499E-1
4.017550418E1,-6.409263611E-2,-7.433378696E-2,1.097755432E-1
4.017800979E1,-5.226039886E-2,-7.390451431E-2,1.212990284E-1
4.018051564E1,-1.651096344E-2,-7.830464840E-2,1.156527996E-1
4.018302141E1,3.557205200E-4,-7.296931744E-2,1.014294624E-1
4.018552702E1,3.146171570E-3,-8.621704578E-2,8.174991608E-2
4.018803287E1,1.926517487E-2,-7.370018959E-2,5.286335945E-2
4.019053864E1,4.107284546E-2,-7.820296288E-2,2.851939201E-2
4.019304449E1,5.032634735E-2,-8.292776346E-2,1.002430916E-2
4.019555010E1,5.025672913E-2,-7.236766815E-2,1.471209526E-2
4.019805587E1,4.363059998E-2,-4.669225216E-2,5.511999130E-3
4.020056172E1,6.254100800E-2,-4.641580582E-2,-2.062940598E-2
4.020306737E1,9.681415558E-2,-5.885285139E-2,-2.196741104E-2
4.020557314E1,9.497833252E-2,-8.030867577E-2,-9.603023529E-3
4.020807898E1,9.887313843E-2,-8.285915852E-2,-2.470135689E-2
4.021058460E1,9.880638123E-2,-7.241231203E-2,-9.386539459E-4
4.021309048E1,1.088266373E-1,-9.008163214E-2,9.155750275E-3
4.021559625E1,1.107101440E-1,-8.071947098E-2,9.136438370E-3
4.021810186E1,1.325864792E-1,-6.644546986E-2,2.966380119E-2
4.022060771E1,1.323671341E-1,-6.611835957E-2,4.798293114E-2
4.022311348E1,1.441020966E-1,-5.311483145E-2,5.762958527E-2
4.022561932E1,1.509160995E-1,-4.990190268E-2,4.698586464E-2
4.022812494E1,1.316461563E-1,-4.909235239E-2,3.978466988E-2
4.023063071E1,1.363887787E-1,-4.693144560E-2,3.715968132E-2
4.023313656E1,1.240835190E-1,-3.321635723E-2,3.174591064E-2
4.023564215E1,9.296226501E-2,-2.798056602E-2,4.515767097E-2
4.023814800E1,7.061672211E-2,-3.941166401E-2,4.773139954E-2
4.024065377E1,6.541538239E-2,-2.949953079E-3,5.448055267E-2
4.024315938E1,7.507419586E-2,-6.846725941E-3,4.896545410E-2
4.024566525E1,5.092144012E-2,-2.170807123E-2,2.953934669E-2
4.024817102E1,1.992988586E-2,-1.105225086E-2,2.763152122E-2
4.025067663E1,-2.321434021E-2,9.554028511E-4,4.135894775E-2
4.025318248E1,-3.323745728E-2,2.505719662E-3,1.575064659E-2
4.025568825E1,-3.999996185E-2,-3.617769480E-2,-1.803421974E-2
4.025819409E1,-5.678844452E-2,-4.896730185E-2,-3.108930588E-2
4.026069971E1,-7.057952881E-2,-9.833967686E-2,-4.911184311E-3
4.026320548E1,-5.625534058E-2,-8.894443512E-2,-1.291108131E-2
4.026571110E1,-7.710456848E-2,-5.060702562E-2,-1.068568230E-2
4.026821694E1,-6.074523926E-2,-1.580083370E-2,-1.467394829E-2
4.027072271E1,-8.853721619E-2,9.363889694E-3,-4.988598824E-2
4.027322856E1,-5.297946930E-2,-2.565503120E-3,-1.008801460E-1
4.027573417E1,-4.759502411E-2,-1.499885321E-2,-1.077215672E-1
4.027824003E1,-5.930233002E-2,-4.564410448E-2,-5.611419678E-2
4.028074580E1,-1.070861816E-1,-6.721758842E-2,-2.465319633E-2
4.028325165E1,-1.742277145E-1,-4.049700499E-2,2.319645882E-2
4.028575719E1,-2.071456909E-1,-7.387101650E-3,4.930567741E-2
4.028826301E1,-1.742267609E-1,-1.647317410E-2,3.218483925E-2
4.029076886E1,-1.449785233E-1,-2.825254202E-2,1.442909241E-3
4.029327448E1,-1.160287857E-1,-2.589535713E-2,-3.560066223E-3
4.029578024E1,-1.209163666E-1,-2.271193266E-2,3.045225143E-2
4.029828609E1,-1.501035690E-1,-6.596744061E-3,3.725671768E-2
4.030079172E1,-1.279973984E-1,-1.430094242E-3,3.241801262E-2
4.030329756E1,-1.161708832E-1,-1.071631908E-3,4.695057869E-2
4.030580334E1,-1.162147522E-1,-3.102064133E-3,7.278227806E-2
4.030830895E1,-8.354282379E-2,-5.708336830E-3,8.393096924E-2
4.031081474E1,-8.559417725E-2,-2.651000023E-2,8.561468124E-2
4.031332058E1,-1.000461578E-1,-1.167118549E-2,9.468865395E-2
4.031582620E1,-1.241645813E-1,1.918244362E-2,1.083731651E-1
4.031833197E1,-1.325407028E-1,2.980214357E-2,1.342604160E-1
4.032083779E1,-1.226425171E-1,2.477663755E-2,1.240165234E-1
4.032334340E1,-1.111087799E-1,2.544760704E-2,1.347935200E-1
4.032584925E1,-1.134309769E-1,1.536589861E-2,1.561784744E-1
4.032835502E1,-7.780265808E-2,7.305979729E-3,1.141741276E-1
4.033086061E1,-3.523159027E-2,2.002274990E-2,1.219046116E-1
4.033336645E1,-5.246925354E-2,3.379464149E-2,1.313147545E-1
4.033587230E1,-3.587341309E-2,3.657895327E-2,1.494169235E-1
4.033837807E1,-5.130195618E-2,4.914718866E-2,1.343488693E-1
4.034088365E1,-2.762985229E-2,5.777406693E-2,1.216607094E-1
4.034338942E1,-2.509117126E-2,5.644851923E-2,1.373980045E-1
4.034589526E1,-2.843093872E-2,7.501447201E-2,1.246964931E-1
4.034840088E1,-2.004623413E-3,8.740150928E-2,1.442663670E-1
4.035090669E1,8.463859558E-3,8.868789673E-2,1.413123608E-1
4.035341246E1,-3.013610840E-3,8.723127842E-2,1.449213028E-1
4.035591830E1,-1.625061035E-3,1.065628529E-1,1.435182095E-1
4.035842392E1,-1.602268219E-2,1.009485126E-1,1.545925140E-1
4.036092966E1,-1.945781708E-2,8.435547352E-2,1.577243805E-1
4.036343551E1,-3.386116028E-2,8.025246859E-2,1.614382267E-1
4.036594112E1,-3.730392456E-2,6.085228920E-2,1.895580292E-1
4.036844689E1,-3.466701508E-2,6.876987219E-2,1.904826164E-1
4.037095274E1,-5.014705658E-2,6.348419189E-2,2.234725952E-1
4.037345834E1,-6.643390656E-2,7.445567846E-2,2.346913815E-1
4.037596411E1,-7.187747955E-2,9.006911516E-2,2.525193691E-1
4.037846996E1,-5.487442017E-2,9.397608042E-2,2.095592022E-1
4.038097558E1,-5.125999451E-2,8.644866943E-2,1.936244965E-1
4.038348142E1,-7.004165649E-2,1.063383222E-1,1.799998283E-1
4.038598717E1,-6.543445587E-2,1.057556868E-1,1.553037167E-1
4.038849279E1,-2.205848694E-2,1.104995608E-1,1.679329872E-1
4.039099863E1,-5.621910095E-3,1.027470827E-1,1.689617634E-1
4.039350440E1,6.793975830E-3,1.065059304E-1,1.316943169E-1
4.039601024E1,2.339076996E-2,1.096314192E-1,1.186840534E-1
4.039851586E1,-5.052566528E-3,1.181349754E-1,1.061787605E-1
4.040102162E1,-3.292083740E-3,1.361300349E-1,8.158445358E-2
4.040352747E1,-9.510040283E-3,1.366035938E-1,6.650090218E-2
4.040603309E1,-2.667713165E-2,1.445540786E-1,5.419850349E-2
4.040853893E1,-2.273559570E-2,1.381660700E-1,6.319952011E-2
4.041104470E1,-2.597141266E-2,1.471533775E-1,6.090235710E-2
4.041355032E1,-3.384113312E-2,1.359650493E-1,5.335927010E-2
4.041605613E1,-4.266548157E-2,1.419063210E-1,4.015612602E-2
4.041856190E1,-8.069133759E-2,1.668432355E-1,3.012347221E-2
4.042106751E1,-9.978961945E-2,1.590451598E-1,3.018283844E-2
4.042357336E1,-1.204118729E-1,1.691081524E-1,2.838945389E-2
4.042607913E1,-1.273031235E-1,1.541987658E-1,1.956892014E-2
4.042858497E1,-1.277942657E-1,1.505993009E-1,1.603770256E-2
4.043109058E1,-1.427354813E-1,1.408840418E-1,6.268739700E-3
4.043359635E1,-1.479234695E-1,1.394301057E-1,3.397917747E-2
4.043610220E1,-1.549158096E-1,1.506987214E-1,8.318662643E-3
4.043860780E1,-1.200675964E-1,1.403791904E-1,-7.631540298E-3
4.044111365E1,-1.289587021E-1,1.306743622E-1,-1.623749733E-2
4.044361942E1,-1.370420456E-1,1.176694036E-1,1.928806305E-3
4.044612503E1,-1.279621124E-1,1.465231776E-1,-1.468658447E-2
4.044863087E1,-8.179187775E-2,1.187328100E-1,-3.119897842E-2
4.045113664E1,-5.769062042E-2,1.108667850E-1,-3.080129623E-2
4.045364248E1,-6.758689880E-2,1.011050344E-1,-4.132270813E-2
4.045614802E1,-6.252479553E-2,8.163750172E-2,-2.595758438E-2
4.045865387E1,-4.153347015E-2,8.180457354E-2,-1.286816597E-2
4.046115948E1,-4.962158203E-2,7.443761826E-2,-8.811950684E-3
4.046366532E1,-3.491401672E-3,5.474275351E-2,-2.753424644E-2
4.046617110E1,-1.348495483E-3,5.341827869E-2,-2.877306938E-2
4.046867694E1,3.602027893E-3,7.741826773E-2,-4.782295227E-2
4.047118254E1,1.747608185E-2,6.290912628E-2,-3.899383545E-2
4.047368838E1,2.835941315E-2,3.468865156E-2,-4.013371468E-2
4.047619415E1,3.346347809E-2,2.054584026E-2,-2.103495598E-2
4.047869977E1,4.210281372E-2,3.231149912E-2,-1.560282707E-2
4.048120557E1,5.407238007E-2,2.697187662E-2,-2.057409286E-2
4.048371134E1,6.771087646E-2,1.398903131E-2,-4.036426544E-4
4.048621718E1,6.072616577E-2,3.868997097E-3,-5.869865417E-4
4.048872280E1,7.437610626E-2,2.091884613E-3,-4.447937012E-3
4.049122857E1,1.032171249E-1,-3.047406673E-3,-4.691839218E-3
4.049373442E1,1.149663925E-1,1.991474628E-2,-3.733539581E-2
4.049624003E1,1.049289703E-1,1.466971636E-2,-5.617475510E-2
4.049874580E1,1.136598587E-1,3.441303968E-2,-4.082345963E-2
4.050125166E1,9.647274017E-2,4.992729425E-2,-2.204632759E-2
4.050375728E1,1.009044647E-1,5.946153402E-2,-9.193897247E-3
4.050626312E1,9.405040741E-2,7.096493244E-2,-7.603836060E-2
4.050876889E1,7.551956177E-2,7.327508926E-2,-6.882786751E-2
4.051127453E1,3.249454498E-2,7.258832455E-2,3.024101257E-3
4.051378030E1,2.717971802E-3,7.476490736E-2,4.646706581E-2
4.051628615E1,-3.341674805E-2,6.530827284E-2,4.624199867E-2
4.051879199E1,-3.199291229E-2,6.068366766E-2,5.608153343E-2
4.052129760E1,-1.011943817E-2,5.231380463E-2,4.675602913E-2
4.052380337E1,8.335113525E-3,8.840596676E-2,3.286218643E-2
4.052630899E1,-3.817558289E-3,1.093530059E-1,2.070355415E-2
4.052881483E1,-2.400588989E-2,1.321271062E-1,-4.478216171E-3
4.053132061E1,-1.205158234E-2,1.528103948E-1,-1.629662514E-2
4.053382645E1,8.955001831E-3,1.540513635E-1,-3.305935860E-2
4.053633207E1,8.965492249E-3,1.545106769E-1,-4.068398476E-2
4.053883791E1,3.975868225E-3,1.418913007E-1,-3.818368912E-2
4.054134367E1,1.399517059E-2,1.543716788E-1,-3.299570084E-2
4.054384928E1,7.942199707E-3,1.537528634E-1,-4.925489426E-3
4.054635505E1,5.646705627E-3,1.444940567E-1,1.889109612E-2
4.054886090E1,7.338523865E-3,1.540065408E-1,3.639745712E-2
4.055136651E1,2.414035797E-2,1.542897224E-1,2.405333519E-2
4.055387236E1,3.767490387E-2,1.508388519E-1,6.836390495E-2
4.055637813E1,4.612064362E-2,1.373691559E-1,7.938599586E-2
4.055888374E1,3.863906860E-2,1.422052979E-1,1.114385128E-1
4.056138960E1,3.104209900E-2,1.310965419E-1,1.264538765E-1
4.056389538E1,3.450012207E-2,1.383427978E-1,1.464092731E-1
4.056640122E1,4.584407806E-2,1.321289539E-1,1.470866203E-1
4.056890684E1,3.349590302E-2,1.135829091E-1,1.622433662E-1
4.057141262E1,1.597881317E-2,1.029607654E-1,1.711494923E-1
4.057391847E1,7.702827454E-3,1.274088025E-1,1.676270962E-1
4.057642409E1,1.904296875E-2,1.286567450E-1,2.093491554E-1
4.057892993E1,3.276348114E-2,1.599453688E-1,1.868414879E-1
4.058143570E1,3.509044647E-2,1.677029133E-1,1.735579967E-1
4.058394132E1,5.770111084E-2,1.650035381E-1,1.617639065E-1
4.058644717E1,9.097003937E-2,1.515631080E-1,1.362888813E-1
4.058895294E1,9.654808044E-2,1.379966140E-1,1.254920959E-1
4.059145878E1,1.127109528E-1,1.323479414E-1,1.209552288E-1
4.059396440E1,1.217107773E-1,1.513979435E-1,1.109051704E-1
4.059647017E1,1.142387390E-1,1.283245087E-1,1.078634262E-1
4.059897601E1,1.088266373E-1,1.376483440E-1,1.231241226E-1
4.060148163E1,1.220378876E-1,1.365115643E-1,1.476273537E-1
4.060398740E1,1.195268631E-1,1.387137771E-1,1.792819500E-1
4.060649325E1,1.396799088E-1,1.445760727E-1,1.776030064E-1
4.060899887E1,1.670913696E-1,1.329796910E-1,1.924066544E-1
4.061150471E1,1.573562622E-1,1.251229048E-1,1.619844437E-1
4.061401049E1,1.798458099E-1,1.294845343E-1,1.479241848E-1
4.061651608E1,1.872510910E-1,1.286290288E-1,1.108627319E-1
4.061902193E1,1.568765640E-1,1.358413100E-1,8.592367172E-2
4.062152770E1,1.254873276E-1,1.550705433E-1,5.718731880E-2
4.062403354E1,8.707332611E-2,1.895118952E-1,6.140494347E-2
4.062653916E1,8.666133881E-2,1.691030264E-1,5.369901657E-2
4.062904493E1,8.003520966E-2,1.469390988E-1,6.866168976E-2
4.063155078E1,1.035833359E-1,1.477364898E-1,6.997704506E-2
4.063405639E1,9.603786469E-2,1.447433233E-1,6.086492538E-2
4.063656216E1,9.052467346E-2,1.415821910E-1,9.583759308E-2
4.063906799E1,1.138334274E-1,1.434701681E-1,8.224701881E-2
4.064157361E1,1.463279724E-1,1.493182778E-1,8.837819099E-2
4.064407946E1,1.594905853E-1,1.422452331E-1,1.045529842E-1
4.064658523E1,1.417646408E-1,1.332849264E-1,1.253950596E-1
4.064909110E1,1.288976669E-1,1.429684162E-1,9.644389153E-2
4.065159672E1,1.595544815E-1,1.321852803E-1,5.673432350E-2
4.065410249E1,1.487760544E-1,1.409602761E-1,5.715465546E-2
4.065660833E1,1.313076019E-1,1.499721408E-1,4.453825951E-2
4.065911397E1,1.325206757E-1,1.347679496E-1,4.886722565E-2
4.066161973E1,1.321067810E-1,1.119048595E-1,6.714820862E-2
4.066412558E1,1.412296295E-1,1.016942859E-1,8.109402657E-2
4.066663120E1,1.272916794E-1,9.640336037E-2,6.003117561E-2
4.066913704E1,1.438293457E-1,9.570550919E-2,6.824564934E-2
4.067164282E1,1.257295609E-1,9.536814690E-2,4.903912544E-2
4.067414843E1,8.440303802E-2,9.648799896E-2,6.036853790E-2
4.067665428E1,5.290508270E-2,7.176184654E-2,7.360839844E-2
4.067916005E1,2.970314026E-2,8.799546957E-2,7.515072823E-2
4.068166586E1,3.138351440E-2,9.414762259E-2,7.438921928E-2
4.068417140E1,2.509117126E-2,9.734135866E-2,9.279990196E-2
4.068667725E1,1.766872406E-2,7.570213079E-2,8.414387703E-2
4.068918286E1,1.516342163E-3,7.912629843E-2,1.056151390E-1
4.069168876E1,-3.729820251E-3,4.578709602E-2,8.806586266E-2
4.069419453E1,3.789901733E-2,4.907190800E-2,9.831857681E-2
4.069670037E1,3.039836884E-2,1.784491539E-2,1.093380451E-1
4.069920599E1,3.312015533E-2,4.469215870E-3,1.202998161E-1
4.070171186E1,5.941772461E-2,-2.131050825E-2,1.357927322E-1
4.070421763E1,4.974365234E-2,-5.237901211E-2,1.932296753E-1
4.070672325E1,3.709602356E-2,-6.884193420E-2,2.105720043E-1
4.070922909E1,-4.281997681E-4,-1.098986864E-1,2.471151352E-1
4.071173488E1,-1.505947113E-2,-1.162453890E-1,2.508721352E-1
4.071424073E1,-2.662563324E-2,-1.482541561E-1,2.804098129E-1
4.071674635E1,-2.019500732E-2,-1.574375629E-1,3.188831806E-1
4.071925211E1,-2.977848053E-2,-1.666265130E-1,3.155148029E-1
4.072175772E1,-5.931186676E-2,-1.589347124E-1,3.570816517E-1
4.072426356E1,-4.378890991E-2,-1.574149132E-1,3.508851528E-1
4.072676934E1,-1.926517487E-2,-1.321662068E-1,3.798680305E-1
4.072927495E1,-1.107025146E-2,-1.434124112E-1,4.168829918E-1
4.073178079E1,-6.920814514E-3,-1.286268234E-1,4.029321671E-1
4.073428656E1,3.699302673E-3,-1.055575609E-1,3.819229603E-1
4.073679240E1,2.186965942E-2,-1.009479165E-1,3.868660927E-1
4.073929802E1,3.433227539E-2,-1.067451239E-1,4.185452461E-1
4.074180381E1,2.635192871E-2,-1.300216913E-1,4.143409729E-1
4.074430966E1,3.596782684E-2,-1.116896868E-1,3.844201565E-1
4.074681528E1,3.804111481E-2,-1.229537725E-1,3.772196770E-1
4.074932112E1,1.895141602E-2,-1.215283871E-1,3.649072647E-1
4.075182691E1,1.115322113E-2,-1.327214241E-1,3.240439892E-1
4.075433276E1,1.222133636E-2,-1.313375831E-1,3.101158142E-1
4.075683837E1,-9.434700012E-3,-1.256551147E-1,3.054747581E-1
4.075934414E1,-3.702926636E-2,-1.034859419E-1,2.892308235E-1
4.076185000E1,-5.958271027E-2,-1.029180288E-1,2.830293179E-1
4.076435561E1,-5.813884735E-2,-9.166610241E-2,3.059792519E-1
4.076686138E1,-6.062698364E-2,-1.011642218E-1,3.046472073E-1
4.076936723E1,-7.114028931E-2,-8.978068829E-2,3.458170891E-1
4.077187285E1,-5.480003357E-2,-1.082497835E-1,3.413202763E-1
4.077437871E1,-5.126953125E-2,-1.048986316E-1,3.405308723E-1
4.077688448E1,-2.990341187E-2,-9.731835127E-2,3.459203243E-1
4.077939009E1,-2.837276459E-2,-9.067678452E-2,3.559060097E-1
4.078189594E1,8.755683899E-3,-9.507590532E-2,3.560376167E-1
4.078440175E1,-8.671760559E-3,-1.120946407E-1,3.688199520E-1
4.078690736E1,-2.144622803E-2,-1.085078716E-1,3.889946938E-1
4.078941321E1,-3.397369385E-2,-1.113654971E-1,4.081306458E-1
4.079191898E1,-5.462741852E-2,-1.178075671E-1,3.993701935E-1
4.079442484E1,-8.086109161E-2,-1.117607951E-1,4.010744095E-1
4.079693046E1,-1.463632584E-1,-1.112653017E-1,4.276211262E-1
4.079943623E1,-1.582155228E-1,-1.110906601E-1,4.179275036E-1
4.080194207E1,-1.778964996E-1,-1.108947396E-1,3.747456074E-1
4.080444769E1,-2.213287354E-1,-1.292372346E-1,3.808188438E-1
4.080695354E1,-2.577133179E-1,-1.178050041E-1,4.227454662E-1
4.080945931E1,-2.739496231E-1,-9.552824497E-2,4.402189255E-1
4.081196492E1,-2.850513458E-1,-9.598726034E-2,4.564301968E-1
4.081447077E1,-2.383937836E-1,-1.164923310E-1,4.413836002E-1
4.081697654E1,-1.878852844E-1,-1.259175539E-1,4.211268425E-1
4.081948239E1,-1.419095993E-1,-1.370698810E-1,4.173026085E-1
4.082198800E1,-1.284265518E-1,-1.433120370E-1,4.397861958E-1
4.082449377E1,-1.222486496E-1,-1.193229556E-1,4.432220459E-1
4.082699962E1,-1.429519653E-1,-9.995305538E-2,4.398219585E-1
4.082950525E1,-1.293725967E-1,-1.156196594E-1,4.540317059E-1
4.083201110E1,-1.798591614E-1,-9.627258778E-2,4.366858006E-1
4.083451687E1,-2.119102478E-1,-9.296894073E-2,4.537432194E-1
4.083702248E1,-2.154035568E-1,-1.045145988E-1,4.454979897E-1
4.083952833E1,-2.230720520E-1,-1.045176387E-1,3.963506222E-1
4.084203407E1,-2.184581757E-1,-1.210534573E-1,3.314352036E-1
4.084453969E1,-1.747865677E-1,-1.282057762E-1,2.946565151E-1
4.084704553E1,-1.131877899E-1,-1.662711501E-1,2.507679462E-1
4.084955130E1,-2.948856354E-2,-2.147333622E-1,2.235932350E-1
4.085205716E1,-9.880065918E-4,-2.487358451E-1,1.911056042E-1
4.085456277E1,3.466033936E-2,-2.739989758E-1,2.024970055E-1
4.085706854E1,4.815959930E-2,-2.852385640E-1,1.479060650E-1
4.085957439E1,8.223724365E-2,-2.992033958E-1,1.259880066E-1
4.086208000E1,9.096527100E-2,-3.040207028E-1,1.128849983E-1
4.086458584E1,1.349592209E-1,-3.220056891E-1,1.100070477E-1
4.086709161E1,1.658563614E-1,-3.808903694E-1,1.118934155E-1
4.086959723E1,1.776838303E-1,-4.176198244E-1,8.698654175E-2
4.087210306E1,1.966094971E-1,-4.393948913E-1,6.729483604E-2
4.087460883E1,2.375993729E-1,-4.645789862E-1,2.025222778E-2
4.087711467E1,2.615242004E-1,-4.794991016E-1,2.966308594E-2
4.087962021E1,2.881097794E-1,-4.717343450E-1,1.898288727E-2
4.088212605E1,2.640218735E-1,-4.389697909E-1,2.539825439E-2
4.088463167E1,2.704496384E-1,-4.175052047E-1,2.809762955E-2
4.088713751E1,2.772874832E-1,-4.157980084E-1,1.452922821E-3
4.088964336E1,2.815523148E-1,-4.276652336E-1,1.407432556E-2
4.089214913E1,2.645950317E-1,-4.617362022E-1,-1.040315628E-2
4.089465476E1,2.446718216E-1,-4.856854081E-1,-3.305912018E-3
4.089716060E1,2.017374039E-1,-5.193168521E-1,-2.267980576E-2
4.089966637E1,1.847553253E-1,-5.187640190E-1,-1.177215576E-2
4.090217222E1,1.469306946E-1,-5.011271238E-1,2.852916718E-3
4.090467786E1,1.068267822E-1,-4.747112989E-1,3.328895569E-2
4.090718363E1,1.065826416E-1,-3.957835436E-1,2.971410751E-2
4.090968948E1,1.136350632E-1,-3.535395861E-1,3.412342072E-2
4.091219510E1,1.255655289E-1,-3.275434971E-1,4.757690430E-2
4.091470086E1,1.461668015E-1,-2.878077030E-1,1.798725128E-2
4.091720648E1,1.720733643E-1,-2.556059361E-1,-1.478672028E-3
4.091971232E1,1.995143890E-1,-2.315437794E-1,2.368497849E-2
4.092221810E1,2.183237076E-1,-2.065691948E-1,4.693031311E-2
4.092472393E1,2.114105225E-1,-1.760427952E-1,3.343439102E-2
4.092722955E1,2.043399811E-1,-1.652227640E-1,1.188564301E-2
4.092973540E1,1.762657166E-1,-1.420102119E-1,-9.811401367E-3
4.093224117E1,1.190547943E-1,-1.360502243E-1,-8.930206299E-3
4.093474681E1,2.812671661E-2,-1.271195412E-1,-2.092456818E-2
4.093725265E1,-5.284023285E-2,-1.423076391E-1,-3.262901306E-2
4.093975842E1,-1.663265228E-1,-1.382840872E-1,-5.879688263E-2
4.094226427E1,-2.325468063E-1,-1.611913443E-1,-1.045818329E-1
4.094476986E1,-2.849969864E-1,-1.903880835E-1,-2.131190300E-1
4.094727570E1,-3.159961700E-1,-2.208653688E-1,-2.642059326E-1
4.094978124E1,-3.486700058E-1,-2.351714373E-1,-2.977023125E-1
4.095228709E1,-3.730602264E-1,-2.723332644E-1,-3.428726196E-1
4.095479286E1,-3.908023834E-1,-2.462546825E-1,-3.493075371E-1
4.095729870E1,-3.842067719E-1,-2.614960670E-1,-3.345928192E-1
4.095980432E1,-3.661375046E-1,-2.409019470E-1,-2.986936569E-1
4.096231009E1,-3.358983994E-1,-2.105226517E-1,-2.753610611E-1
4.096481590E1,-3.005332947E-1,-2.015693188E-1,-2.839851379E-1
4.096732152E1,-2.342653275E-1,-1.731390953E-1,-2.466387749E-1
4.096982737E1,-2.210063934E-1,-1.077431440E-1,-2.394118309E-1
4.097233314E1,-2.049999237E-1,-4.919219017E-2,-2.054924965E-1
4.097483875E1,-2.062606812E-1,3.696584702E-2,-1.710968018E-1
4.097734461E1,-2.196540833E-1,1.372789741E-1,-1.408195496E-1
4.097985038E1,-2.384977341E-1,2.222232819E-1,-1.281294823E-1
4.098235622E1,-3.051433563E-1,2.979807258E-1,-1.220221519E-1
4.098486184E1,-3.931379318E-1,3.635697365E-1,-1.308550835E-1
4.098736759E1,-4.597949982E-1,4.122670889E-1,-1.256566048E-1
4.098987344E1,-4.882907867E-1,4.635040760E-1,-1.452116966E-1
4.099237905E1,-5.738229752E-1,4.932669997E-1,-1.461071968E-1
4.099488490E1,-6.124887466E-1,5.136532187E-1,-1.611742973E-1
4.099739067E1,-6.431035995E-1,5.224771500E-1,-1.579985619E-1
4.099989625E1,-6.049747467E-1,5.946247578E-1,-1.854810715E-1
4.100240210E1,-5.532894135E-1,6.953032017E-1,-1.556067467E-1
4.100490787E1,-7.418880463E-1,6.149620414E-1,-1.424441338E-1
4.100741371E1,-8.571472168E-1,4.852367043E-1,-2.169179916E-1
4.100991935E1,-9.025816917E-1,4.295144677E-1,-1.388311386E-1
4.101242512E1,-8.472695351E-1,4.508071542E-1,-1.047706604E-1
4.101493096E1,-8.093929291E-1,5.128802061E-1,-3.715133667E-2
4.101743658E1,-8.901085854E-1,5.170467496E-1,-3.585815430E-4
4.101994235E1,-9.418044090E-1,5.251378417E-1,1.426486969E-1
4.102244818E1,-8.988380432E-1,5.668192506E-1,1.607770920E-1
4.102495379E1,-8.656978607E-1,5.849738717E-1,1.283025742E-1
4.102745964E1,-8.535914421E-1,5.453771949E-1,5.122661591E-2
4.102996541E1,-8.772473335E-1,4.176902771E-1,-1.794767380E-2
4.103247098E1,-8.597245216E-1,3.092511892E-1,-5.686569214E-2
4.103497682E1,-7.693443298E-1,3.515216708E-1,-1.323819160E-1
4.103748260E1,-6.796979904E-1,4.604901075E-1,-2.646079063E-1
4.103998844E1,-6.654720306E-1,6.066220403E-1,-4.046754837E-1
4.104249406E1,-7.549667358E-1,8.118921518E-1,-6.520695686E-1
4.104499984E1,-8.617525101E-1,9.963044524E-1,-8.092346191E-1
4.104750569E1,-9.784684181E-1,1.197024822E0,-1.048576832E0
4.105001130E1,-1.193768501E0,1.679202795E0,-1.302030563E0
4.105251715E1,-1.416099072E0,2.012851954E0,-1.443052292E0
4.105502292E1,-1.407122612E0,2.051912546E0,-1.483767033E0
4.105752853E1,-1.418352604E0,2.091620445E0,-1.634037018E0
4.106003438E1,-1.308336258E0,2.063058138E0,-1.667843342E0
4.106254015E1,-1.094372272E0,1.983542323E0,-1.678984642E0
4.106504576E1,-8.833246231E-1,1.892172456E0,-1.605566025E0
4.106755160E1,-7.655439377E-1,1.801284790E0,-1.389168262E0
4.107005737E1,-6.771931648E-1,1.709363580E0,-1.158335209E0
4.107256299E1,-6.648135185E-1,1.547832251E0,-8.817167282E-1
4.107506881E1,-6.691846848E-1,1.461864710E0,-5.792689323E-1
4.107757459E1,-6.011409760E-1,1.310680509E0,-5.111198425E-1
4.108008043E1,-6.323552132E-1,1.112347007E0,-4.390153885E-1
4.108258605E1,-6.466875076E-1,9.665108919E-1,-3.129563332E-1
4.108509185E1,-6.160550117E-1,7.668873072E-1,-1.509251595E-1
4.108759762E1,-4.148263931E-1,6.237439513E-1,-5.693292618E-2
4.109010324E1,-2.479009628E-1,4.875422716E-1,-1.168885231E-1
4.109260908E1,-1.191930771E-1,3.137701750E-1,8.403682709E-2
4.109511485E1,7.893562317E-3,3.149249554E-1,2.970933914E-2
4.109762048E1,-8.793258667E-2,3.027488589E-1,-7.930183411E-2
4.110012632E1,-1.986122131E-2,1.962097883E-1,7.039880753E-2
4.110263210E1,3.181724548E-1,1.672267914E-2,3.520617485E-1
4.110513794E1,6.570844650E-1,-2.280281782E-1,5.835180283E-1
4.110764352E1,9.565715790E-1,-3.542684317E-1,5.477199554E-1
4.111014937E1,1.166039467E0,-3.380212784E-1,4.883217812E-1
4.111265491E1,1.284985542E0,-2.589472532E-1,3.793773651E-1
4.111516075E1,1.460812569E0,-3.605961800E-2,2.466926575E-1
4.111766652E1,1.638886452E0,1.144654751E-1,1.732296944E-1
4.112017237E1,1.397981644E0,1.978170872E-2,1.080703735E-2
4.112267821E1,1.276882172E0,1.727306843E-2,3.089032173E-1
4.112518375E1,1.579329491E0,3.886589408E-1,2.777500153E-1
4.112768960E1,1.791896820E0,6.517544985E-1,4.005899429E-1
4.113019518E1,1.914683342E0,6.864243746E-1,2.889833450E-1
4.113270102E1,2.102665901E0,6.735982895E-1,9.193325043E-2
4.113520680E1,2.056948662E0,5.917133093E-1,-3.406715393E-2
4.113771264E1,1.927775383E0,5.167258978E-1,6.411075592E-3
4.114021828E1,1.778748512E0,4.366608262E-1,1.538772583E-1
4.114272405E1,1.746601105E0,3.996210694E-1,4.098892212E-1
4.114522990E1,1.875320435E0,5.225559473E-1,6.268992424E-1
4.114773551E1,2.107979774E0,6.312606931E-1,5.748572350E-1
4.115024127E1,2.305640221E0,7.144646645E-1,2.980008125E-1
4.115274712E1,2.412786484E0,7.534083724E-1,5.976867676E-2
4.115525274E1,2.428856850E0,7.635756135E-1,-4.201745987E-2
4.115775858E1,2.344060898E0,7.594576478E-1,-5.304098129E-2
4.116026435E1,2.244125366E0,7.571698427E-1,-7.276153564E-2
4.116276998E1,2.152327538E0,7.700611949E-1,-1.667685509E-1
4.116527582E1,2.057084084E0,7.688505054E-1,-2.327208519E-1
4.116778160E1,1.924408913E0,7.795276642E-1,-2.935581207E-1
4.117028721E1,1.749446869E0,8.013429046E-1,-3.710808754E-1
4.117279307E1,1.535872459E0,8.526256680E-1,-4.266796112E-1
4.117529884E1,1.337601662E0,8.960365057E-1,-3.836827278E-1
4.117780468E1,1.189057350E0,9.158958793E-1,-3.512067795E-1
4.118031030E1,1.015486717E0,9.207758904E-1,-3.079385757E-1
4.118281607E1,8.567247391E-1,9.178332090E-1,-2.174983025E-1
4.118532194E1,7.839403152E-1,8.378946185E-1,-1.181263924E-1
4.118782756E1,7.518968582E-1,7.740021944E-1,-3.042793274E-2
4.119033340E1,7.384033203E-1,7.367505431E-1,1.207833290E-1
4.119283917E1,8.276376724E-1,6.887680888E-1,2.762866020E-1
4.119534482E1,7.899179459E-1,5.785121918E-1,2.427139282E-1
4.119785067E1,7.453651428E-1,4.584115148E-1,2.553253174E-1
4.120035644E1,7.272415161E-1,4.603099227E-1,2.832617760E-1
4.120286228E1,7.786960602E-1,4.602542520E-1,2.639117241E-1
4.120536792E1,7.026863098E-1,4.800964594E-1,2.360625267E-1
4.120787369E1,6.028108597E-1,5.132870078E-1,2.425947189E-1
4.121037954E1,4.044275284E-1,4.845746756E-1,2.758922577E-1
4.121288515E1,2.848854065E-1,4.794875383E-1,4.049105644E-1
4.121539096E1,2.048072815E-1,4.896185994E-1,5.205135345E-1
4.121789674E1,1.830873489E-1,4.792520404E-1,5.922613144E-1
4.122040235E1,1.879701614E-1,3.889288902E-1,6.290075779E-1
4.122290819E1,2.377548218E-1,3.054722548E-1,6.646296978E-1
4.122541397E1,2.681217194E-1,2.162760496E-1,6.758902073E-1
4.122791957E1,2.357549667E-1,1.400333643E-1,6.962351799E-1
4.123042542E1,1.406211853E-1,9.284162521E-2,7.418293953E-1
4.123293119E1,5.253028870E-2,1.472104788E-1,7.832870483E-1
4.123543703E1,-8.775711060E-2,1.905144453E-1,7.826843262E-1
4.123794265E1,-1.890277863E-1,2.878230214E-1,8.115038872E-1
4.124044843E1,-2.433271408E-1,3.993736506E-1,7.551960945E-1
4.124295427E1,-2.629423141E-1,5.272927284E-1,7.392191887E-1
4.124545989E1,-2.601137161E-1,6.813813448E-1,6.757681370E-1
4.124796573E1,-3.521118164E-1,8.144915700E-1,6.734380722E-1
4.125047149E1,-4.370050430E-1,9.983367324E-1,7.492775917E-1
4.125297711E1,-5.817937851E-1,1.090538979E0,8.922801018E-1
4.125548295E1,-5.692090988E-1,1.138944387E0,9.737212658E-1
4.125798872E1,-7.179951668E-1,1.183389187E0,1.065752983E0
4.126049457E1,-7.652468681E-1,1.226161838E0,1.244868755E0
4.126300019E1,-7.041611671E-1,1.258592963E0,1.287753820E0
4.126550595E1,-7.750906944E-1,1.198756218E0,1.268465042E0
4.126801180E1,-7.039222717E-1,1.235035300E0,1.193220615E0
4.127051740E1,-7.672362328E-1,1.140035868E0,1.160531282E0
4.127302325E1,-9.307198524E-1,9.281880260E-1,1.265713453E0
4.127552902E1,-1.050084114E0,6.789154410E-1,1.176044703E0
4.127803463E1,-9.745483398E-1,5.014304519E-1,9.654757977E-1
4.128054049E1,-8.723554611E-1,4.165437818E-1,7.897768021E-1
4.128304626E1,-7.837615013E-1,3.492140174E-1,7.512569427E-1
4.128555211E1,-6.972589493E-1,3.160634041E-1,7.975544930E-1
4.128805772E1,-6.088657379E-1,3.705109358E-1,7.775969505E-1
4.129056344E1,-5.243797302E-1,4.641785026E-1,7.518985271E-1
4.129306928E1,-4.310855865E-1,5.778466463E-1,7.337052822E-1
4.129557490E1,-3.769092560E-1,7.037249804E-1,7.379996777E-1
4.129808067E1,-3.580141068E-1,8.286848068E-1,7.566227913E-1
4.130058629E1,-3.995847702E-1,9.290282726E-1,8.322439194E-1
4.130309213E1,-4.646492004E-1,9.630473852E-1,9.178137779E-1
4.130559798E1,-4.769039154E-1,1.003952980E0,9.658629894E-1
4.130810375E1,-5.158605576E-1,1.000142217E0,1.026360512E0
4.131060935E1,-5.267114639E-1,9.211642146E-1,1.100753546E0
4.131311520E1,-5.306634903E-1,8.337188959E-1,1.143279791E0
4.131562097E1,-4.357213974E-1,7.790508270E-1,1.170311689E0
4.131812681E1,-3.939056396E-1,6.945431232E-1,1.149430513E0
4.132063243E1,-4.150896072E-1,5.749110579E-1,1.173850298E0
4.132313820E1,-4.091749191E-1,4.798972607E-1,1.099945307E0
4.132564404E1,-3.963994980E-1,4.314205647E-1,1.034649849E0
4.132814966E1,-4.423751831E-1,3.846054673E-1,9.730033875E-1
4.133065540E1,-4.030647278E-1,4.296649098E-1,8.985900879E-1
4.133316125E1,-3.728084564E-1,5.724036694E-1,7.311358452E-1
4.133566686E1,-3.927698135E-1,6.645992398E-1,6.767609119E-1
4.133817263E1,-3.268013000E-1,7.964470387E-1,6.684069633E-1
4.134067847E1,-2.089405060E-1,9.823561907E-1,6.687788963E-1
4.134318409E1,-1.619167328E-1,1.146815062E0,6.794905663E-1
4.134568985E1,-1.158819199E-1,1.235232949E0,7.440423965E-1
4.134819570E1,-7.517814636E-2,1.266520500E0,8.360946178E-1
4.135070150E1,6.312084198E-2,1.305031776E0,9.179341793E-1
4.135320712E1,1.933240891E-1,1.260044098E0,9.296774864E-1
4.135571296E1,3.467817307E-1,1.162502527E0,8.709280491E-1
4.135821850E1,2.909898758E-1,1.139970541E0,8.011207581E-1
4.136072433E1,1.560525894E-1,1.135849357E0,9.028000832E-1
4.136323010E1,1.239490509E-1,1.140068054E0,8.383603096E-1
4.136573595E1,1.296396255E-1,1.204303741E0,7.304036617E-1
4.136824157E1,1.006927490E-1,1.247116923E0,6.145789623E-1
4.137074738E1,-1.624870300E-2,1.203022242E0,5.981807709E-1
4.137325315E1,-1.431827545E-1,1.099367738E0,6.022253036E-1
4.137575877E1,-1.551828384E-1,1.068317771E0,5.282750130E-1
4.137826461E1,-1.289958954E-1,1.086708903E0,3.096437454E-1
4.138077040E1,-1.562395096E-1,1.052589655E0,2.378745079E-1
4.138327602E1,-1.671228409E-1,1.071105838E0,1.624302864E-1
4.138578186E1,-1.491508484E-1,1.112137079E0,1.217308044E-1
4.138828763E1,-2.910614014E-3,1.357271075E0,-7.666826248E-2
4.139079348E1,1.594915390E-1,1.858583212E0,-5.518941879E-1
4.139329910E1,-7.386016846E-2,2.050716400E0,-7.105965614E-1
4.139580486E1,-3.848218918E-1,2.006403208E0,-2.689180374E-1
4.139831071E1,-4.266376495E-1,2.089386940E0,9.536170959E-2
4.140081633E1,-6.273584366E-1,1.976881385E0,1.539483070E-1
4.140332218E1,-1.084769249E0,1.353437185E0,8.006062508E-1
4.140582795E1,-1.125441551E0,8.605561852E-1,1.041450024E0
4.140833356E1,-7.379789352E-1,6.125389338E-1,7.099738121E-1
4.141083940E1,-4.941692352E-1,3.793020248E-1,2.844738960E-1
4.141334517E1,-5.216140747E-1,1.031870842E-1,3.830099106E-2
4.141585078E1,-4.356880188E-1,3.081035614E-2,-1.114988327E-1
4.141835663E1,-4.240312576E-1,1.006569862E-1,-3.004837036E-1
4.142086240E1,-2.918424606E-1,1.924296021E-1,-4.097175598E-1
4.142336826E1,-2.315216064E-1,4.293131232E-1,-4.713292122E-1
4.142587388E1,2.207279205E-2,8.542932272E-1,-4.548330307E-1
4.142837972E1,2.852144241E-1,1.367559075E0,-2.395200729E-1
4.143088549E1,4.568214417E-1,1.872885346E0,-1.928901672E-2
4.143339111E1,5.348567963E-1,2.362475872E0,2.097892761E-1
4.143589695E1,4.161872864E-1,2.656119585E0,5.700941086E-1
4.143840272E1,2.103395462E-1,2.781845331E0,9.245510101E-1
4.144090834E1,2.146816254E-2,2.794109344E0,1.256702662E0
4.144341418E1,-1.610860825E-1,2.810004234E0,1.444434643E0
4.144591994E1,-2.636327744E-1,2.740571022E0,1.588103056E0
4.144842578E1,-3.669652939E-1,2.623463869E0,1.731140852E0
4.145093140E1,-3.730239868E-1,2.444324017E0,1.741610289E0
4.145343717E1,-3.938550949E-1,2.210194826E0,1.662364244E0
4.145594306E1,-4.003124237E-1,1.912978530E0,1.577279329E0
4.145844868E1,-5.066471100E-1,1.541444302E0,1.388362408E0
4.146095453E1,-5.984339714E-1,1.231878757E0,1.141256332E0
4.146346030E1,-5.562839508E-1,9.800394773E-1,9.499616623E-1
4.146596591E1,-3.474893570E-1,7.584739923E-1,7.278997898E-1
4.146847177E1,-4.561500549E-1,5.531347990E-1,5.928921700E-1
4.147097754E1,-3.516635895E-1,2.924330831E-1,4.499125481E-1
4.147348338E1,-3.139057159E-1,1.578222513E-1,3.784837723E-1
4.147598892E1,-2.383031845E-1,1.304393411E-1,2.456293106E-1
4.147849477E1,-1.978054047E-1,1.298986077E-1,2.498779297E-1
4.148100038E1,-1.754856110E-1,2.044339776E-1,2.767605782E-1
4.148350623E1,-1.484413147E-1,3.336192369E-1,3.715829849E-1
4.148601200E1,1.461505890E-2,3.915364146E-1,6.025199890E-1
4.148851784E1,5.818176270E-2,4.513618946E-1,7.667846680E-1
4.149102345E1,1.094036102E-1,6.473915577E-1,8.963968754E-1
4.149352930E1,1.235198975E-1,8.154343367E-1,9.851405621E-1
4.149603507E1,1.719551086E-1,9.167690277E-1,1.104831457E0
4.149854068E1,2.708406448E-1,9.544809461E-1,1.083431005E0
4.150104653E1,2.318935394E-1,1.055814743E0,1.010615349E0
4.150355230E1,3.041133881E-1,1.260494471E0,1.096632957E0
4.150605814E1,3.333959579E-1,1.402194500E0,1.192734718E0
4.150856376E1,2.755498886E-1,1.630730629E0,1.233912706E0
4.151106953E1,4.101486206E-1,1.767891049E0,1.414287806E0
4.151357535E1,3.953676224E-1,1.700388670E0,1.534742117E0
4.151608097E1,4.373140335E-1,1.578125238E0,1.476086140E0
4.151858673E1,4.932250977E-1,1.388545871E0,1.458138227E0
4.152109258E1,5.251045227E-1,1.200882673E0,1.456620455E0
4.152359820E1,6.599740982E-1,9.872648716E-1,1.418263197E0
4.152610399E1,7.114267349E-1,8.587725163E-1,1.320031881E0
4.152860984E1,6.733999252E-1,7.051392794E-1,1.139103413E0
4.153111546E1,6.481437683E-1,6.869975328E-1,1.022641182E0
4.153362122E1,4.500904083E-1,8.028569221E-1,9.642007351E-1
4.153612704E1,5.493144989E-1,8.148578405E-1,1.108015060E0
4.153863265E1,6.369323730E-1,7.210984230E-1,1.210607529E0
4.154113850E1,6.034774780E-1,7.353109121E-1,1.125831366E0
4.154364427E1,4.861145020E-1,6.800574064E-1,1.113032103E0
4.154615013E1,4.542131424E-1,6.104783416E-1,1.255741835E0
4.154865575E1,4.835453033E-1,6.715269089E-1,1.254059792E0
4.155116159E1,6.482524872E-1,6.998786926E-1,1.174311161E0
4.155366736E1,7.148675919E-1,6.630813479E-1,1.143049240E0
4.155617298E1,8.758678436E-1,6.201729774E-1,1.122139692E0
4.155867875E1,9.393663406E-1,6.648120880E-1,1.041873455E0
4.156118459E1,1.017281532E0,7.868177891E-1,9.818060398E-1
4.156369021E1,1.025907516E0,9.185741544E-1,8.481004238E-1
4.156619608E1,1.064907074E0,1.032574177E0,7.861504555E-1
4.156870185E1,1.169907570E0,1.099624157E0,8.481004238E-1
4.157120747E1,1.267857552E0,1.211674213E0,8.721005917E-1
4.157371331E1,1.344807625E0,1.297624111E0,8.631005287E-1
4.157621907E1,1.381311417E0,1.409070611E0,8.706166744E-1
4.157872491E1,1.380896568E0,1.490969658E0,9.027132988E-1
4.158123053E1,1.400317192E0,1.574698687E0,1.052836895E0
4.158373630E1,1.404007912E0,1.720269203E0,1.148739338E0
4.158624218E1,1.422031403E0,1.849034667E0,1.234818697E0
4.158874780E1,1.382838249E0,1.984296322E0,1.304511070E0
4.159125365E1,1.313265800E0,2.083198547E0,1.460177183E0
4.159375942E1,1.216819763E0,2.233332396E0,1.306678295E0
4.159626502E1,1.205337524E0,2.291480541E0,1.257397890E0
4.159877087E1,1.172956467E0,2.353140831E0,1.156130791E0
4.160127664E1,1.135447502E0,2.385344982E0,9.337961674E-1
4.160378248E1,1.152283669E0,2.440799236E0,6.645669937E-1
4.160628811E1,1.172256470E0,2.475950718E0,4.170699120E-1
4.160879388E1,1.196891785E0,2.484685183E0,1.514034271E-1
4.161129972E1,1.181290627E0,2.457702637E0,-1.322417259E-1
4.161380534E1,1.192689896E0,2.406393051E0,-4.366688728E-1
4.161631118E1,1.189046860E0,2.331986189E0,-7.664122581E-1
4.161881698E1,1.215979576E0,2.273676395E0,-1.143371105E0
4.162132260E1,1.235116005E0,2.192053318E0,-1.542386055E0
4.162382844E1,1.286520958E0,2.108823299E0,-1.963034153E0
4.162633422E1,1.341486931E0,2.036473274E0,-2.352752209E0
4.162883983E1,1.390082359E0,1.907870770E0,-2.703237057E0
4.163134568E1,1.489865303E0,1.754785895E0,-3.028943539E0
4.163385145E1,1.506699562E0,1.562063813E0,-3.041973114E0
4.163635729E1,1.706894875E0,1.383150339E0,-3.591718674E0
4.163886292E1,1.945305824E0,1.159873843E0,-3.829067707E0
4.164136868E1,2.125867844E0,9.704281688E-1,-3.944809437E0
4.164387453E1,2.302768707E0,8.099288940E-1,-4.125997066E0
4.164638015E1,2.445328712E0,6.907006502E-1,-4.287778854E0
4.164888601E1,2.588768005E0,5.729407072E-1,-4.401447296E0
4.165139178E1,2.718234062E0,5.517324805E-1,-4.498391628E0
4.165389739E1,2.782871246E0,6.269381046E-1,-4.586133957E0
4.165640316E1,2.681248665E0,7.333593369E-1,-4.632742882E0
4.165890905E1,2.486725807E0,7.884576321E-1,-4.634968281E0
4.166141467E1,2.367278099E0,8.451530933E-1,-4.576776028E0
4.166392051E1,2.385554314E0,9.280163050E-1,-4.497432709E0
4.166642628E1,2.463018417E0,9.657453299E-1,-4.323350430E0
4.166893212E1,2.503065109E0,9.395835400E-1,-4.090351105E0
4.167143773E1,2.582571030E0,8.941863775E-1,-3.802383900E0
4.167394358E1,2.648065567E0,8.643933535E-1,-3.519099236E0
4.167644935E1,2.609231949E0,7.603484392E-1,-3.212385178E0
4.167895496E1,2.592636108E0,6.779060364E-1,-2.900623322E0
4.168146083E1,2.524622917E0,6.190209985E-1,-2.716436386E0
4.168396660E1,2.382376671E0,5.684243441E-1,-2.649193764E0
4.168647244E1,2.207771301E0,5.560267568E-1,-2.662297726E0
4.168897798E1,1.978360176E0,5.265345573E-1,-2.712105751E0
4.169148383E1,1.721898079E0,4.815583825E-1,-2.799291134E0
4.169398942E1,1.494845390E0,4.038809240E-1,-2.902188778E0
4.169649526E1,1.234002113E0,2.718532681E-1,-3.023970604E0
4.169900104E1,1.013524055E0,1.290880442E-1,-3.127969742E0
4.170150688E1,7.399864197E-1,3.813999891E-2,-3.195080280E0
4.170401253E1,4.434299469E-1,-1.695984006E-1,-3.265361309E0
4.170651838E1,2.773485184E-1,-4.487388134E-1,-3.285457611E0
4.170902415E1,3.781385422E-1,-1.070491672E0,-3.288808823E0
4.171152999E1,1.281700134E-1,-1.265143752E0,-3.347349644E0
4.171403553E1,-1.162357330E-1,-1.353674412E0,-3.359411716E0
4.171654138E1,-3.214139938E-1,-1.454259992E0,-3.337997437E0
4.171904699E1,-5.604181290E-1,-1.561704159E0,-3.253470421E0
4.172155284E1,-9.222493172E-1,-1.806185961E0,-3.082269192E0
4.172405861E1,-1.351414680E0,-1.988209248E0,-3.067784309E0
4.172656446E1,-1.733877659E0,-2.192181349E0,-3.009058952E0
4.172907008E1,-2.014214993E0,-2.356915236E0,-2.911420822E0
4.173157592E1,-2.185484886E0,-2.553240538E0,-2.791053295E0
4.173408170E1,-2.253195763E0,-2.778263330E0,-2.632080555E0
4.173658725E1,-2.253841400E0,-3.070264816E0,-2.477428913E0
4.173909309E1,-2.121713161E0,-3.510724306E0,-2.239914894E0
4.174159886E1,-1.964287758E0,-3.879985809E0,-1.960097790E0
4.174410448E1,-1.936385155E0,-4.030081749E0,-1.645001888E0
4.174661033E1,-2.011058807E0,-4.194645405E0,-1.258615971E0
4.174911611E1,-2.035481453E0,-4.341970444E0,-8.256678581E-1
4.175162172E1,-2.011396408E0,-4.471861362E0,-4.034738541E-1
4.175412756E1,-1.954027653E0,-4.635544777E0,-8.683204651E-3
4.175663334E1,-1.862344742E0,-4.847382545E0,4.064867496E-1
4.175913916E1,-1.803743362E0,-5.075317860E0,8.693401814E-1
4.176164478E1,-1.711113930E0,-5.058510780E0,1.093322992E0
4.176415054E1,-1.619006634E0,-5.056313515E0,1.294462442E0
4.176665639E1,-1.518417835E0,-5.131947994E0,1.573904514E0
4.176916225E1,-1.316344261E0,-5.207032204E0,1.764471292E0
4.177166787E1,-1.188159466E0,-5.121692657E0,1.872707844E0
4.177417364E1,-1.084653378E0,-4.966694832E0,1.972470999E0
4.177667925E1,-9.558601379E-1,-4.794157505E0,2.003706455E0
4.177918509E1,-8.601951599E-1,-4.676383972E0,1.998084068E0
4.178169086E1,-5.910005569E-1,-4.573987007E0,1.917862177E0
4.178419647E1,-4.314813614E-1,-4.544659615E0,1.886539221E0
4.178670232E1,-3.155097961E-1,-4.396674633E0,1.865538597E0
4.178920808E1,3.086948395E-2,-4.150534630E0,1.877440453E0
4.179171392E1,5.180549622E-1,-3.745536566E0,1.862318516E0
4.179421954E1,6.231527328E-1,-3.678273201E0,1.714223385E0
4.179672530E1,6.025533676E-1,-3.640909910E0,1.677839994E0
4.179923118E1,7.097263336E-1,-3.524184227E0,1.713882208E0
4.180173679E1,9.655447006E-1,-3.168314934E0,1.764045715E0
4.180424264E1,1.364370346E0,-2.793431282E0,1.729375362E0
4.180674841E1,1.672923088E0,-2.427521706E0,1.466994762E0
4.180925404E1,1.941053391E0,-2.013483763E0,1.200428724E0
4.181175988E1,2.036980629E0,-1.631601572E0,9.513907433E-1
4.181426565E1,2.056519508E0,-1.389359236E0,7.479357719E-1
4.181677150E1,2.182765007E0,-1.259244680E0,6.170182228E-1
4.181927711E1,2.242209435E0,-1.095485806E0,4.524245262E-1
4.182178289E1,2.344329834E0,-9.496982098E-1,2.598786354E-1
4.182428873E1,2.494671822E0,-8.818708658E-1,9.294652939E-2
4.182679435E1,2.661622047E0,-9.369210005E-1,-8.900356293E-2
4.182930019E1,2.926314354E0,-1.107820511E0,-3.872582912E-1
4.183180594E1,3.117194176E0,-1.250345230E0,-7.705118656E-1
4.183431155E1,3.134288788E0,-1.386830449E0,-1.074791908E0
4.183681740E1,3.069822311E0,-1.449227333E0,-1.356508732E0
4.183932317E1,2.793101311E0,-1.464540958E0,-1.478388071E0
4.184182902E1,2.211280823E0,-1.249332309E0,-1.626451969E0
4.184433464E1,1.878821373E0,-1.863105416E0,-1.735548496E0
4.184684041E1,1.772857666E0,-2.144594193E0,-2.332795858E0
4.184934626E1,1.478806496E0,-2.185324907E0,-3.193088531E0
4.185185190E1,1.214826584E0,-2.455006123E0,-3.777996540E0
4.185435774E1,1.117899895E0,-2.714177132E0,-4.072731972E0
4.185686351E1,1.429831505E0,-2.267944098E0,-3.778789520E0
4.185936913E1,1.686726570E0,-1.544066191E0,-3.183110476E0
4.186187501E1,1.750683784E0,-7.949037552E-1,-2.959965706E0
4.186438078E1,1.810265541E0,-7.043957710E-3,-2.635494947E0
4.186688662E1,1.664120674E0,5.233055949E-1,-2.400698662E0
4.186939224E1,1.286985397E0,8.077523112E-1,-2.201442719E0
4.187189802E1,7.849302292E-1,7.944878936E-1,-2.042515039E0
4.187440387E1,5.183668137E-1,6.905520558E-1,-1.996068239E0
4.187690949E1,5.687198639E-1,7.448135018E-1,-1.830217838E0
4.187941533E1,9.453010559E-1,8.443033099E-1,-1.627074242E0
4.188192110E1,1.167839050E0,1.144864082E0,-1.508500099E0
4.188442672E1,1.461964607E0,1.283958316E0,-1.394562244E0
4.188693256E1,1.690548897E0,1.280273318E0,-1.254297733E0
4.188943833E1,1.884325027E0,1.177509665E0,-1.044105768E0
4.189194395E1,2.037359238E0,1.125734925E0,-9.375662804E-1
4.189444972E1,2.195119858E0,1.143399596E0,-8.438179493E-1
4.189695557E1,2.416654587E0,1.342807651E0,-7.477767467E-1
4.189946119E1,2.515951157E0,1.580045700E0,-4.776341915E-1
4.190196703E1,2.543614388E0,1.912955523E0,-2.549643517E-1
4.190447280E1,2.298789978E0,2.084296703E0,-8.144998550E-2
4.190697867E1,1.773365974E0,2.022416592E0,4.581212997E-2
4.190948428E1,1.400835037E0,1.991631508E0,7.982540131E-2
4.191199013E1,8.052854538E-1,1.759119153E0,5.438518524E-2
4.191449590E1,2.803602219E-1,1.549907446E0,7.000446320E-3
4.191700151E1,-8.460903168E-2,1.298685551E0,-1.763272285E-1
4.191950736E1,-3.811740875E-1,8.258648515E-1,-3.368065357E-1
4.192201313E1,-5.333204269E-1,4.306731224E-1,-5.082433224E-1
4.192451897E1,-7.032432556E-1,2.453804016E-2,-6.462202072E-1
4.192702453E1,-1.002723694E0,-3.420484066E-1,-7.621934414E-1
4.192953037E1,-1.251429558E0,-6.451926231E-1,-7.436575890E-1
4.193203599E1,-1.419173241E0,-7.436422110E-1,-8.057074547E-1
4.193454184E1,-1.600013733E0,-6.933685541E-1,-8.555057049E-1
4.193704758E1,-1.765270710E0,-5.984395742E-1,-8.400623798E-1
4.193955320E1,-1.730802059E0,-4.030272961E-1,-7.748994827E-1
4.194205904E1,-1.674012184E0,-1.561375856E-1,-7.121059895E-1
4.194456481E1,-1.766013622E0,1.141595840E-2,-6.258482933E-1
4.194707064E1,-1.843783379E0,2.618974447E-1,-6.166551113E-1
4.194957626E1,-1.875020981E0,5.257990360E-1,-5.908100605E-1
4.195208203E1,-1.800104618E0,8.499518037E-1,-5.419800282E-1
4.195458787E1,-1.866723537E0,1.146156669E0,-4.565510750E-1
4.195709349E1,-1.918476105E0,1.690776467E0,-4.446718693E-1
4.195959932E1,-1.880485058E0,1.943266630E0,-7.792234421E-2
4.196210509E1,-1.768694878E0,1.979978561E0,1.201953888E-1
4.196461071E1,-1.651884556E0,1.899384737E0,3.494372368E-1
4.196711655E1,-1.773709297E0,1.990297675E0,5.739967823E-1
4.196962233E1,-1.938970566E0,1.811278462E0,9.637637138E-1
4.197212817E1,-2.056261063E0,1.605156898E0,1.226581097E0
4.197463379E1,-2.070606709E0,1.437596560E0,1.300321341E0
4.197713956E1,-2.060179710E0,1.310317516E0,1.283887386E0
4.197964533E1,-2.139453411E0,1.165886641E0,1.438591242E0
4.198215095E1,-2.285273075E0,1.000105381E0,1.483924985E0
4.198465680E1,-2.326543808E0,8.297921419E-1,1.531578183E0
4.198716257E1,-2.457448483E0,6.369109750E-1,1.542488217E0
4.198966818E1,-2.697544575E0,3.909251690E-1,1.650238395E0
4.199217402E1,-2.839694977E0,2.883677483E-1,1.661444426E0
4.199467979E1,-2.907152653E0,1.743896008E-1,1.655266047E0
4.199718564E1,-2.938249588E0,6.862866879E-2,1.631086230E0
4.199969126E1,-2.957313061E0,-8.626747131E-2,1.486958742E0
4.200219703E1,-2.974142551E0,-1.971448660E-1,1.494972110E0
4.200470288E1,-2.960201263E0,-1.947971582E-1,1.516881704E0
4.200720850E1,-3.064623356E0,-3.142744303E-1,1.512713194E0
4.200971434E1,-3.112613678E0,-3.879152536E-1,1.562688947E0
4.201222012E1,-2.936831474E0,-4.414260387E-1,1.580425262E0
4.201472573E1,-2.931478977E0,-3.718858957E-1,1.450286508E0
4.201723158E1,-3.065414906E0,-3.066383600E-1,1.471181393E0
4.201973735E1,-3.190338135E0,-1.893928051E-1,1.383234262E0
4.202224318E1,-3.360442638E0,-1.119967699E-1,1.239595413E0
4.202474879E1,-3.386321068E0,-3.805637360E-3,1.055632114E0
4.202725456E1,-3.403560162E0,8.748638630E-2,8.813428879E-1
4.202976041E1,-3.448462963E0,1.596386433E-1,8.144717216E-1
4.203226602E1,-3.409209728E0,2.088910341E-1,7.722270489E-1
4.203477177E1,-3.461013317E0,2.139779329E-1,7.914640903E-1
4.203727761E1,-3.476755142E0,2.429300547E-1,8.530745506E-1
4.203978323E1,-3.452689171E0,2.689920664E-1,9.611952305E-1
4.204228907E1,-3.410681248E0,3.434886932E-1,1.089622259E0
4.204479485E1,-3.369564056E0,3.695105314E-1,1.235592365E0
4.204730046E1,-3.238868713E0,4.471648932E-1,1.414894819E0
4.204980631E1,-3.202910423E0,3.872175217E-1,1.639755845E0
4.205231208E1,-3.090918064E0,3.994780779E-1,1.752835989E0
4.205481794E1,-2.944011211E0,2.465665340E-1,1.869545460E0
4.205732355E1,-2.925563335E0,2.965537310E-1,1.913781166E0
4.205982932E1,-2.913674831E0,3.775944710E-1,1.934453130E0
4.206233517E1,-2.851437092E0,6.136558056E-1,1.880241394E0
4.206484078E1,-2.799499035E0,6.785345078E-1,1.650032878E0
4.206734661E1,-2.746656895E0,6.601485014E-1,1.575667739E0
4.206985238E1,-2.825639725E0,4.902029037E-1,1.568543196E0
4.207235800E1,-2.855576038E0,4.195134640E-1,1.451760530E0
4.207486376E1,-2.906603813E0,2.906078100E-1,1.364636183E0
4.207736961E1,-2.848380566E0,9.979712963E-2,1.234320879E0
4.207987527E1,-2.797332764E0,-1.107944250E-1,1.112194061E0
4.208238112E1,-2.682692051E0,-1.770709753E-1,1.034571409E0
4.208488689E1,-2.383699417E0,-3.575015068E-2,9.584779739E-1
4.208739273E1,-2.236366749E0,1.400469542E-1,8.639860153E-1
4.208989836E1,-2.162449360E0,2.982208729E-1,9.598486423E-1
4.209240413E1,-2.030225277E0,5.271379948E-1,1.051189423E0
4.209490997E1,-2.059531212E0,6.899530888E-1,1.289699078E0
4.209741559E1,-2.075115204E0,8.288144469E-1,1.471747875E0
4.209992142E1,-2.070478916E0,9.214396477E-1,1.636082649E0
4.210242719E1,-2.073297501E0,9.110492468E-1,1.757409692E0
4.210493304E1,-2.078604698E0,8.986950517E-1,1.861598730E0
4.210743858E1,-2.115286350E0,8.548271060E-1,1.898702621E0
4.210994444E1,-2.060596943E0,8.424958587E-1,1.844928145E0
4.211245006E1,-2.102132797E0,8.066282868E-1,1.714999437E0
4.211495590E1,-1.920543194E0,8.662070036E-1,1.585215449E0
4.211746167E1,-1.862438679E0,8.380174637E-1,1.406861424E0
4.211996755E1,-1.723257065E0,7.847175598E-1,1.254547119E0
4.212247317E1,-1.565671921E0,7.770729065E-1,1.110865831E0
4.212497901E1,-1.297064304E0,7.593223453E-1,1.044938564E0
4.212748478E1,-1.088448524E0,6.821321845E-1,1.124180317E0
4.212999065E1,-9.113616943E-1,6.410634518E-1,1.289981008E0
4.213249619E1,-7.394237518E-1,5.453536510E-1,1.613911271E0
4.213500204E1,-5.263080597E-1,5.110843182E-1,1.795831919E0
4.213750788E1,-3.969602585E-1,4.518923759E-1,1.890527129E0
4.214001347E1,-2.559604645E-1,4.229424000E-1,2.093477249E0
4.214251931E1,-2.310466766E-1,3.597818613E-1,2.308686733E0
4.214502485E1,-1.582107544E-1,3.731454611E-1,2.522594452E0
4.214753070E1,-1.479387283E-1,3.386775255E-1,2.649391174E0
4.215003650E1,-3.332042694E-2,3.267669678E-1,2.792601347E0
4.215254235E1,1.712408066E-1,3.662203550E-1,2.670984507E0
4.215504797E1,2.772455215E-1,3.782602549E-1,2.624852657E0
4.215755381E1,4.053344727E-1,3.197190762E-1,2.777975321E0
4.216005957E1,5.856323242E-1,3.391985893E-1,2.479490042E0
4.216256518E1,7.056798935E-1,3.690183163E-1,2.334166050E0
4.216507103E1,7.315769196E-1,3.574981689E-1,2.231528759E0
4.216757680E1,7.259006500E-1,4.327660799E-1,1.919998765E0
4.217008241E1,6.088418961E-1,4.462621808E-1,1.381460786E0
4.217258825E1,5.317935944E-1,4.153635502E-1,1.142477393E0
4.217509402E1,5.905036926E-1,4.063864350E-1,8.387410641E-1
4.217759986E1,8.127269745E-1,3.659085631E-1,7.599484921E-1
4.218010548E1,8.782758713E-1,3.061156869E-1,7.407386303E-1
4.218261125E1,1.063591003E0,2.784045935E-1,6.663074493E-1
4.218511709E1,1.108300209E0,2.238503695E-1,5.716652870E-1
4.218762271E1,1.164087296E0,2.472741604E-1,6.628224850E-1
4.219012855E1,1.152672768E0,1.639853716E-1,7.320690155E-1
4.219263432E1,1.144264221E0,1.319960356E-1,6.511304379E-1
4.219513995E1,1.105278015E0,1.807386875E-1,3.952026367E-1
4.219764580E1,1.056418419E0,1.449723244E-1,5.104057789E-1
4.220015157E1,1.008462906E0,2.823964357E-1,3.067879677E-1
4.220265741E1,1.069354057E0,3.656229973E-1,3.272178173E-1
4.220516303E1,1.221287727E0,5.253828764E-1,3.436863422E-1
4.220766882E1,1.230228424E0,6.586134434E-1,1.607630253E-1
4.221017467E1,1.418990135E0,7.819972634E-1,7.363677025E-2
4.221268028E1,1.607203484E0,8.446561098E-1,1.369483471E-1
4.221518613E1,1.781337738E0,1.161686540E0,2.591013908E-1
4.221769190E1,2.021011353E0,1.405275583E0,4.842834473E-1
4.222019752E1,2.437153816E0,1.769428015E0,3.674907684E-1
4.222270336E1,2.898367882E0,2.113473415E0,2.473227978E-1
4.222520913E1,3.103756905E0,2.457732677E0,3.438925743E-1
4.222771498E1,3.096091270E0,2.730485439E0,3.659636974E-1
4.223022060E1,3.124313354E0,3.112133980E0,7.502801418E-1
4.223272636E1,3.236746788E0,3.538887978E0,7.827723026E-1
4.223523221E1,2.952080727E0,3.721249342E0,9.942029715E-1
4.223773783E1,2.673011780E0,3.769649744E0,1.022953033E0
4.224024368E1,2.527748108E0,3.743724346E0,1.193222284E0
4.224274945E1,2.449492455E0,3.638218880E0,1.414095521E0
4.224525506E1,2.425866127E0,3.411109686E0,1.738344431E0
4.224776091E1,2.308003426E0,2.903719902E0,2.046130180E0
4.225026668E1,2.653460503E0,2.564960718E0,1.932174921E0
4.225277227E1,2.731100082E0,2.220412016E0,1.525361538E0
4.225527811E1,2.653683662E0,1.865132570E0,1.132619500E0
4.225778388E1,2.703852654E0,1.591717958E0,8.213397264E-1
4.226028973E1,2.664516449E0,1.297787786E0,6.493849754E-1
4.226279535E1,2.553821564E0,1.081014156E0,6.761624813E-1
4.226530111E1,2.452025414E0,8.444138765E-1,5.761458874E-1
4.226780695E1,2.379896164E0,5.339761972E-1,4.326658249E-1
4.227031257E1,2.317405701E0,2.722682953E-1,3.829016685E-1
4.227281842E1,2.419525146E0,5.879831314E-2,1.076462269E-1
4.227532418E1,2.414319038E0,-2.160860896E-1,-4.119801521E-2
4.227782979E1,2.330946922E0,-5.806545615E-1,-1.075336933E-1
4.228033564E1,2.649868965E0,-6.041619182E-1,-6.874661446E-1
4.228284141E1,2.772387505E0,-7.533403635E-1,-1.132850885E0
4.228534725E1,2.787656784E0,-8.506487608E-1,-1.602993727E0
4.228785287E1,2.834529877E0,-9.026967883E-1,-2.070682287E0
4.229035863E1,2.925967216E0,-1.100862026E0,-2.333385468E0
4.229286448E1,2.879920959E0,-1.239928126E0,-2.703943968E0
4.229537009E1,2.794493675E0,-1.518993378E0,-3.059169531E0
4.229787586E1,2.798436165E0,-1.712900162E0,-3.263831377E0
4.230038170E1,2.836532593E0,-1.956062198E0,-3.388396025E0
4.230288732E1,2.834101677E0,-2.136799812E0,-3.752444983E0
4.230539318E1,2.794942856E0,-2.333626986E0,-3.977555990E0
4.230789895E1,2.701522827E0,-2.505295277E0,-4.526313782E0
4.231040479E1,2.589361191E0,-2.753750801E0,-4.900845051E0
4.231291041E1,2.645951271E0,-2.965436459E0,-5.247653008E0
4.231541619E1,2.842026711E0,-3.195466995E0,-5.488973141E0
4.231792180E1,2.954633713E0,-3.481324911E0,-5.703018188E0
4.232042765E1,3.150033951E0,-3.785742998E0,-5.848783970E0
4.232293349E1,3.272464752E0,-4.143627167E0,-5.991104603E0
4.232543925E1,3.423960686E0,-4.465347290E0,-5.927605152E0
4.232794486E1,3.561985016E0,-4.730438709E0,-5.939579487E0
4.233045063E1,3.521454811E0,-4.902098179E0,-5.833130836E0
4.233295647E1,3.393700600E0,-5.064120293E0,-5.665440559E0
4.233546209E1,3.200113297E0,-5.202394009E0,-5.488841534E0
4.233796793E1,2.893708229E0,-5.272611618E0,-5.247141838E0
4.234047370E1,2.396287918E0,-5.327466965E0,-5.028116226E0
4.234297955E1,1.804966927E0,-5.456125736E0,-4.611912727E0
4.234548518E1,1.170717239E0,-5.641065598E0,-3.757155180E0
4.234799094E1,1.320759773E0,-5.262484074E0,-3.115746975E0
4.235049679E1,1.766428947E0,-4.667222500E0,-2.182888031E0
4.235300241E1,1.968564987E0,-3.998845816E0,-1.894530773E0
4.235550812E1,1.945072174E0,-3.362993002E0,-1.534162521E0
4.235801396E1,1.371201515E0,-2.755784273E0,-1.303473234E0
4.236051958E1,4.277639389E-1,-2.282608509E0,-1.374479771E0
4.236302535E1,-4.508399963E-1,-2.044032812E0,-1.416570425E0
4.236553117E1,-1.069986343E0,-1.892229080E0,-1.260120153E0
4.236803678E1,-1.555912971E0,-1.840763092E0,-1.212903738E0
4.237054263E1,-1.973598957E0,-2.017201185E0,-9.698657990E-1
4.237304840E1,-2.153101444E0,-2.213889599E0,-6.506748199E-1
4.237555401E1,-2.157411575E0,-2.352804899E0,-4.494297504E-1
4.237805981E1,-1.957642078E0,-2.387309551E0,-4.024999142E-1
4.238056558E1,-1.675244808E0,-2.352109432E0,-5.669431686E-1
4.238307143E1,-1.436566353E0,-2.258487940E0,-9.509401321E-1
4.238557704E1,-1.196172714E0,-2.008265018E0,-1.993096352E0
4.238808278E1,-1.437583923E0,-1.864416242E0,-2.483577967E0
4.239058862E1,-1.854496956E0,-1.808871269E0,-2.597981691E0
4.239309424E1,-2.284420967E0,-1.701219082E0,-2.538594961E0
4.239560008E1,-1.981687546E0,-1.089637041E0,-2.037132740E0
4.239810585E1,-3.888483047E-1,2.931436300E-1,-8.233506680E-1
4.240061145E1,3.666286469E-1,1.097198606E0,-1.360113621E-1
4.240311729E1,-5.493431091E-1,9.925929904E-1,-2.656934261E-1
4.240562306E1,-2.202013493E0,5.169044733E-1,-1.807225704E0
4.240812891E1,-3.470854759E0,-3.178679943E-2,-4.144427776E0
4.241063454E1,-4.275774002E0,-6.298427582E-1,-6.403079033E0
4.241314030E1,-4.433287621E0,-1.376387358E0,-8.101030350E0
4.241564615E1,-4.427721977E0,-1.892551899E0,-9.160828590E0
4.241815177E1,-4.456960678E0,-2.126599550E0,-8.475551605E0
4.242065761E1,-4.369191647E0,-2.079047680E0,-7.072224140E0
4.242316336E1,-3.862382412E0,-1.818234444E0,-5.953795433E0
4.242566898E1,-3.401238918E0,-1.523753643E0,-4.922945976E0
4.242817482E1,-3.157154083E0,-1.153176546E0,-3.629770279E0
4.243068060E1,-2.848137379E0,-7.702502608E-1,-2.174716949E0
4.243318642E1,-2.413044930E0,-4.413512945E-1,-7.586066723E-1
4.243569204E1,-1.858725548E0,-1.611418128E-1,2.840857506E-1
4.243819781E1,-1.337028503E0,4.298692942E-2,9.541077614E-1
4.244070366E1,-7.868680954E-1,2.717326880E-1,1.279282570E0
4.244320929E1,-3.699264526E-1,4.229533374E-1,1.466785550E0
4.244571513E1,-4.643440247E-3,5.813683271E-1,1.400286198E0
4.244822067E1,2.594594955E-1,7.000057101E-1,1.040195823E0
4.245072652E1,4.458856583E-1,7.861563563E-1,5.952227116E-1
4.245323228E1,5.697011948E-1,7.328158617E-1,2.432639599E-1
4.245573812E1,5.213088989E-1,6.864323616E-1,-1.309242249E-1
4.245824374E1,7.155885696E-1,7.070793509E-1,-6.479175091E-1
4.246074958E1,9.780158997E-1,7.551630735E-1,-1.071432114E0
4.246325536E1,1.232666969E0,8.221136332E-1,-1.643593550E0
4.246576116E1,1.396517754E0,8.833723664E-1,-2.193293333E0
4.246826678E1,1.685742378E0,9.598187208E-1,-2.614832878E0
4.247077263E1,1.885388374E0,9.755315185E-1,-3.081945896E0
4.247327840E1,2.102121353E0,1.002994061E0,-3.420369864E0
4.247578400E1,2.138848305E0,8.820850849E-1,-3.642720222E0
4.247828984E1,2.292530060E0,7.319697738E-1,-3.624862671E0
4.248079561E1,2.281208038E0,5.984063148E-1,-3.409486055E0
4.248330123E1,2.196041107E0,3.825204074E-1,-2.991890430E0
4.248580710E1,2.078630447E0,2.322560549E-2,-2.441829443E0
4.248831287E1,2.101732254E0,-3.942487240E-1,-1.775010586E0
4.249081871E1,1.989034653E0,-8.450567126E-1,-9.843831062E-1
4.249332433E1,1.927251816E0,-1.229727030E0,-1.431860924E-1
4.249583013E1,1.804773331E0,-1.695280075E0,5.604829788E-1
4.249833574E1,1.751665115E0,-2.125884771E0,1.267591953E0
4.250084159E1,1.647334099E0,-2.477318048E0,1.736332536E0
4.250334736E1,1.648728371E0,-2.868419170E0,2.028777122E0
4.250585322E1,1.997488976E0,-3.232174397E0,2.310793638E0
4.250835884E1,2.185784340E0,-3.560196400E0,2.481728077E0
4.251086461E1,2.045290947E0,-3.567203999E0,2.624103546E0
4.251337045E1,1.777762413E0,-3.460094452E0,2.743160725E0
4.251587606E1,1.268060684E0,-3.249102116E0,2.781514406E0
4.251838190E1,1.296562195E0,-2.619589329E0,3.024351120E0
4.252088767E1,1.633660316E0,-1.760010958E0,3.060297966E0
4.252339352E1,1.269378662E0,-1.214560032E0,2.618464470E0
4.252589920E1,1.125203133E0,-9.041858912E-1,2.106024742E0
4.252840504E1,8.974466324E-1,-7.254334092E-1,1.535585046E0
4.253091082E1,3.208971024E-1,-5.639685392E-1,7.754203081E-1
4.253341666E1,-1.232662201E-1,-6.093873978E-1,5.839135647E-1
4.253592221E1,-6.978931427E-1,-6.498611569E-1,1.581113338E-1
4.253842806E1,-1.397965431E0,-6.467623711E-1,-5.813386440E-1
4.254093367E1,-1.918557167E0,-6.328787208E-1,-1.218106747E0
4.254343952E1,-2.364856720E0,-6.982313991E-1,-1.402365208E0
4.254594532E1,-2.629590988E0,-8.564162254E-1,-1.493626833E0
4.254845093E1,-2.940673351E0,-9.932452440E-1,-1.635474920E0
4.255095678E1,-3.188668251E0,-1.132596612E0,-1.541455507E0
4.255346255E1,-3.173471928E0,-1.331675053E0,-1.401385069E0
4.255596842E1,-3.041438580E0,-1.516372204E0,-1.357421637E0
4.255847404E1,-3.013881207E0,-1.599451542E0,-1.526043892E0
4.256097989E1,-2.868333340E0,-1.720048904E0,-1.554803133E0
4.256348566E1,-2.715034485E0,-1.837469339E0,-1.461069822E0
4.256599150E1,-2.632211685E0,-1.947694063E0,-1.437259197E0
4.256849712E1,-2.552689552E0,-1.991104841E0,-1.331995487E0
4.257100288E1,-2.469885349E0,-2.001907349E0,-1.248409986E0
4.257350850E1,-2.468401432E0,-2.034989595E0,-1.139881134E0
4.257601434E1,-2.567885399E0,-2.001492023E0,-1.060398340E0
4.257852012E1,-2.735553265E0,-1.882288933E0,-1.008100033E0
4.258102596E1,-2.880663395E0,-1.769386053E0,-9.056165218E-1
4.258353158E1,-3.102270126E0,-1.609776258E0,-9.498698711E-1
4.258603734E1,-3.314632416E0,-1.505595922E0,-9.172241688E-1
4.258854322E1,-3.474072933E0,-1.387167454E0,-8.436298370E-1
4.259104884E1,-3.578581810E0,-1.209071636E0,-7.003045082E-1
4.259355468E1,-3.619734764E0,-1.016077399E0,-5.171952248E-1
4.259606045E1,-3.619427681E0,-8.334672451E-1,-3.254282475E-1
4.259856607E1,-3.646222115E0,-6.597061157E-1,-2.081501484E-1
4.260107191E1,-3.605967045E0,-4.533741474E-1,-2.758836746E-2
4.260357768E1,-3.563985348E0,-2.813882232E-1,1.404228210E-1
4.260608353E1,-3.611863136E0,-7.512062788E-2,3.017194271E-1
4.260858911E1,-3.680264473E0,1.206899285E-1,4.378111362E-1
4.261109488E1,-3.663247585E0,2.857004404E-1,5.650744438E-1
4.261360072E1,-3.618520260E0,3.927136958E-1,7.151594162E-1
4.261610634E1,-3.652536869E0,5.486261845E-1,7.542927265E-1
4.261861218E1,-3.600683689E0,6.866130233E-1,8.407268524E-1
4.262111796E1,-3.622727871E0,8.754061460E-1,8.997550011E-1
4.262362358E1,-3.599969387E0,1.037453651E0,9.671008587E-1
4.262612942E1,-3.607037544E0,1.183234215E0,1.020083308E0
4.262863519E1,-3.591117382E0,1.288985968E0,1.060409546E0
4.263114104E1,-3.567157269E0,1.396578312E0,1.130447507E0
4.263364666E1,-3.647064686E0,1.460534811E0,1.080452561E0
4.263615243E1,-3.604191303E0,1.545137882E0,1.102269411E0
4.263865827E1,-3.556237698E0,1.594587088E0,1.105264902E0
4.264116387E1,-3.480377674E0,1.596147776E0,1.011388898E0
4.264366972E1,-3.364686966E0,1.591468811E0,9.323062897E-1
4.264617549E1,-3.330672264E0,1.562817097E0,8.893187046E-1
4.264868110E1,-3.087244987E0,1.516009331E0,9.255359173E-1
4.265118693E1,-2.987242699E0,1.451245546E0,8.315382004E-1
4.265369270E1,-2.954060555E0,1.428041458E0,6.638998985E-1
4.265619854E1,-2.858101368E0,1.396375060E0,7.359969616E-1
4.265870416E1,-2.683089256E0,1.365979195E0,7.318370342E-1
4.266120992E1,-2.419158936E0,1.237987876E0,6.868896484E-1
4.266371577E1,-2.138351440E0,1.127838135E0,6.229693890E-1
4.266622138E1,-1.910434723E0,1.016553521E0,5.270617008E-1
4.266872723E1,-1.715324402E0,9.272720218E-1,4.693529606E-1
4.267123300E1,-1.566441536E0,9.157131910E-1,3.615958691E-1
4.267373860E1,-1.474090099E0,9.399752617E-1,2.857649326E-1
4.267624444E1,-1.442184925E0,9.670442343E-1,2.532050610E-1
4.267875022E1,-1.464957714E0,1.025916696E0,2.394380569E-1
4.268125583E1,-1.447905064E0,1.099766850E0,2.179198265E-1
4.268376168E1,-1.357678890E0,1.097680449E0,1.925437450E-1
4.268626743E1,-1.199842453E0,9.991469979E-1,2.289648056E-1
4.268877327E1,-1.116642952E0,9.991910458E-1,2.944250107E-1
4.269127889E1,-1.065904617E0,1.092015862E0,2.896442413E-1
4.269378466E1,-9.449119568E-1,1.191709995E0,3.152384758E-1
4.269629051E1,-8.423500061E-1,1.236961842E0,2.961158752E-1
4.269879613E1,-7.957315445E-1,1.404361486E0,3.225789070E-1
4.270130197E1,-8.203945160E-1,1.561134815E0,3.064038754E-1
4.270380775E1,-9.456844330E-1,1.765475988E0,3.410723209E-1
4.270631357E1,-6.000213623E-1,1.749875546E0,5.952472687E-1
4.270881919E1,-5.156841278E-1,1.832658052E0,4.051268101E-1
4.271132496E1,-4.144401550E-1,1.892833114E0,2.910344601E-1
4.271383057E1,-2.746114731E-1,1.904124737E0,3.049194813E-1
4.271633642E1,-2.649183273E-1,1.905750990E0,3.358693123E-1
4.271884219E1,-8.196640015E-2,1.873510718E0,4.439427853E-1
4.272134781E1,6.214809418E-2,1.856308222E0,4.377303123E-1
4.272385365E1,2.608690262E-1,1.826393723E0,4.530372620E-1
4.272635942E1,4.585390091E-1,1.801594973E0,4.784588814E-1
4.272886526E1,6.632490158E-1,1.741394520E0,5.361580849E-1
4.273137088E1,7.149209976E-1,1.664823055E0,6.096847057E-1
4.273387664E1,8.544292450E-1,1.525015116E0,6.523129940E-1
4.273638249E1,8.415536880E-1,1.355657578E0,7.847542763E-1
4.273888815E1,8.024673462E-1,1.183627248E0,8.814835548E-1
4.274139399E1,7.270174026E-1,1.066399574E0,9.499704838E-1
4.274389976E1,6.721601486E-1,9.507060051E-1,9.950896502E-1
4.274640561E1,6.112413406E-1,8.581996560E-1,9.627823830E-1
4.274891122E1,5.562028885E-1,7.958485484E-1,9.248745441E-1
4.275141706E1,5.354261398E-1,7.506944537E-1,8.817203045E-1
4.275392283E1,5.387039185E-1,7.078911662E-1,8.485188484E-1
4.275642868E1,5.594148636E-1,6.583735347E-1,8.207354546E-1
4.275893420E1,5.990915298E-1,6.268414855E-1,7.989325523E-1
4.276144004E1,6.654195786E-1,6.195063591E-1,7.815885544E-1
4.276394566E1,7.340154648E-1,6.383548379E-1,7.572240829E-1
4.276645150E1,7.886362076E-1,6.793716550E-1,7.936573029E-1
4.276895729E1,8.809461594E-1,7.266231775E-1,8.249843121E-1
4.277146290E1,8.443365097E-1,7.634042501E-1,9.159353971E-1
4.277396875E1,9.637918472E-1,8.195334673E-1,1.036483526E0
4.277647452E1,1.189656258E0,8.513489962E-1,1.049452543E0
4.277898039E1,1.284949303E0,9.494280815E-1,1.015920162E0
4.278148601E1,1.408822060E0,1.068970680E0,1.028943062E0
4.278399178E1,1.485923767E0,1.203542709E0,1.045160651E0
4.278649762E1,1.565195084E0,1.334992409E0,1.050679564E0
4.278900324E1,1.635828972E0,1.451506734E0,1.029180408E0
4.279150908E1,1.685251236E0,1.595576763E0,9.992281199E-1
4.279401486E1,1.664463043E0,1.712387323E0,9.737377167E-1
4.279652047E1,1.656025887E0,1.768967748E0,9.269077778E-1
4.279902634E1,1.692417145E0,1.784598351E0,8.494033813E-1
4.280153211E1,1.240778923E0,1.959063411E0,6.608824730E-1
4.280403795E1,1.079241753E0,2.088813066E0,7.338500023E-1
4.280654357E1,1.329691887E0,2.116401196E0,6.724317074E-1
4.280904934E1,1.375327110E0,2.170293570E0,2.157511711E-1
4.281155519E1,1.384705544E0,2.204778910E0,-1.299419403E-1
4.281406081E1,1.331303596E0,2.218238831E0,-2.304112911E-1
4.281656665E1,1.338748932E0,2.170783043E0,-3.077001572E-1
4.281907242E1,1.394039154E0,2.179551125E0,-5.836498737E-1
4.282157805E1,1.463068008E0,2.227363825E0,-1.040453911E0
4.282408390E1,1.383377075E0,2.265727043E0,-1.527884483E0
4.282658967E1,1.205910683E0,2.291847706E0,-1.926794052E0
4.282909551E1,1.033562660E0,2.294670820E0,-2.179076433E0
4.283160112E1,1.204320908E0,2.211479902E0,-2.489394426E0
4.283410689E1,1.191401482E0,2.091809988E0,-2.838856220E0
4.283661274E1,1.223452568E0,1.926756859E0,-3.172945738E0
4.283911836E1,1.301256180E0,1.711039066E0,-3.402425289E0
4.284162421E1,1.381327629E0,1.555944443E0,-3.638583899E0
4.284412998E1,1.453991890E0,1.422153473E0,-3.813604593E0
4.284663560E1,1.557868004E0,1.334459782E0,-3.901093483E0
4.284914144E1,1.691211700E0,1.230105639E0,-3.916143179E0
4.285164723E1,1.903103828E0,1.149979353E0,-3.918085575E0
4.285415308E1,2.179934502E0,1.021204472E0,-3.855810404E0
4.285665862E1,2.405579567E0,9.223207831E-1,-3.733552933E0
4.285916446E1,2.621518135E0,8.531950712E-1,-3.639860630E0
4.286167008E1,2.775050163E0,7.906156778E-1,-3.583113432E0
4.286417593E1,2.489745140E0,8.850873113E-1,-3.486617804E0
4.286668170E1,2.319694519E0,9.220482111E-1,-3.086102247E0
4.286918754E1,2.931010246E0,8.952738047E-1,-2.636743546E0
4.287169317E1,3.393337250E0,9.205536842E-1,-3.018529415E0
4.287419901E1,3.687660217E0,9.085320234E-1,-3.445590973E0
4.287670478E1,3.792965889E0,9.660687447E-1,-3.475431681E0
4.287921063E1,3.969162941E0,9.405137300E-1,-3.268007994E0
4.288171625E1,4.118355751E0,9.130493402E-1,-3.287258148E0
4.288422202E1,3.991766930E0,8.184795380E-1,-3.332053900E0
4.288672786E1,3.747102737E0,7.389874458E-1,-3.125121593E0
4.288923348E1,3.470355988E0,5.264712572E-1,-2.721541405E0
4.289173932E1,3.348676682E0,1.273116469E-1,-2.349716902E0
4.289424509E1,3.165004730E0,-3.272661567E-1,-2.033593655E0
4.289675070E1,2.870236397E0,-7.526505589E-1,-1.743899584E0
4.289925647E1,2.612932205E0,-1.075377822E0,-1.568429708E0
4.290176231E1,2.271329880E0,-1.260944128E0,-1.490288734E0
4.290426793E1,1.891462326E0,-1.449065328E0,-1.420900106E0
4.290677370E1,1.588093758E0,-1.623281002E0,-1.424082041E0
4.290927955E1,1.321351051E0,-1.836229324E0,-1.470111132E0
4.291178516E1,1.073448181E0,-2.056742668E0,-1.541199446E0
4.291429100E1,7.802686691E-1,-2.266419172E0,-1.614200592E0
4.291679677E1,5.071077347E-1,-2.429781675E0,-1.712485075E0
4.291930239E1,2.391242981E-1,-2.556432962E0,-1.785727024E0
4.292180823E1,-4.308319092E-2,-2.654487371E0,-1.853199720E0
4.292431400E1,-3.504533768E-1,-2.805930853E0,-1.860095739E0
4.292681984E1,-6.756391525E-1,-2.951452732E0,-1.811227560E0
4.292932546E1,-1.005596161E0,-3.120492935E0,-1.729941368E0
4.293183130E1,-1.229763031E0,-3.284036160E0,-1.654913664E0
4.293433706E1,-1.290680885E0,-3.552394152E0,-1.578952551E0
4.293684291E1,-1.303761959E0,-3.735040903E0,-1.531329870E0
4.293934852E1,-1.261734009E0,-3.902508497E0,-1.449223518E0
4.294185437E1,-1.167243958E0,-4.168292046E0,-1.307373524E0
4.294435991E1,-1.236574173E0,-4.342312813E0,-1.277063370E0
4.294686576E1,-1.362164021E0,-4.326851845E0,-1.246570110E0
4.294937153E1,-1.403092861E0,-4.351225853E0,-1.175237894E0
4.295187737E1,-1.399198055E0,-4.423682213E0,-1.063849926E0
4.295438299E1,-1.357213974E0,-4.519938469E0,-1.031736374E0
4.295688876E1,-1.287811756E0,-4.581676483E0,-9.418382645E-1
4.295939461E1,-1.183199883E0,-4.698711872E0,-9.132847786E-1
4.296190022E1,-1.062790871E0,-4.744173050E0,-9.720196724E-1
4.296440607E1,-8.876581192E-1,-4.851298809E0,-9.077146053E-1
4.296691185E1,-7.269124985E-1,-5.036931515E0,-8.387753963E-1
4.296941769E1,-6.549167633E-1,-5.034930229E0,-6.450047493E-1
4.297192331E1,-5.567817688E-1,-5.054653168E0,-5.069677830E-1
